"ppt","type","trialNo","subjectGroup","condition1","title","content","trialText","head","stimFormat","pageBreak","stim1","stim2","key","ITI","ISI","presTime","random","randomBlock","feedbackIncorrect","feedbackCorrect","button1","button2","button3","button4","keyboard","responseType","responseOptions","orderPres","orderFile","timestamp","response","RT","correct","responseCode"
"AAMOKZPAFMKE","test",1,0,"apprentissage","na","na","Watch carefully these four families","na",".jpg","na","learn04","na","na",500,"na","na","na","na","na","na","NEXT","na","na","na","na","na","na",1,1,77050,1,18692,0,NA
"AAMOKZPAFMKE","test",2,0,"apprentissage","na","na","To which family does this character belong?","na",".jpg","na","O1","na","3",500,"na","na","1","na","Your answer is wrong","Your answer is correct","FAMILY A","FAMILY B","FAMILY C","FAMILY D","na","na","na",2,18,82349,3,4784,1,NA
"AAMOKZPAFMKE","test",4,0,"apprentissage","na","na","To which family does this character belong?","na",".jpg","na","O3","na","3",500,"na","na","1","na","Your answer is wrong","Your answer is correct","FAMILY A","FAMILY B","FAMILY C","FAMILY D","na","na","na",3,20,86673,3,1885,1,NA
"AAMOKZPAFMKE","test",17,0,"apprentissage","na","na","To which family does this character belong?","na",".jpg","na","P7","na","4",500,"na","na","1","na","Your answer is wrong","Your answer is correct","FAMILY A","FAMILY B","FAMILY C","FAMILY D","na","na","na",4,32,91159,4,2553,1,NA
"AAMOKZPAFMKE","test",13,0,"apprentissage","na","na","To which family does this character belong?","na",".jpg","na","P4","na","4",500,"na","na","1","na","Your answer is wrong","Your answer is correct","FAMILY A","FAMILY B","FAMILY C","FAMILY D","na","na","na",5,29,94997,4,1969,1,NA
"AAMOKZPAFMKE","test",10,0,"apprentissage","na","na","To which family does this character belong?","na",".jpg","na","P1","na","4",500,"na","na","1","na","Your answer is wrong","Your answer is correct","FAMILY A","FAMILY B","FAMILY C","FAMILY D","na","na","na",6,26,98492,4,1543,1,NA
"AAMOKZPAFMKE","test",9,0,"apprentissage","na","na","To which family does this character belong?","na",".jpg","na","O8","na","3",500,"na","na","1","na","Your answer is wrong","Your answer is correct","FAMILY A","FAMILY B","FAMILY C","FAMILY D","na","na","na",7,25,102031,3,1996,1,NA
"AAMOKZPAFMKE","test",17,0,"apprentissage","na","na","To which family does this character belong?","na",".jpg","na","M7","na","2",500,"na","na","1","na","Your answer is wrong","Your answer is correct","FAMILY A","FAMILY B","FAMILY C","FAMILY D","na","na","na",8,16,106892,2,3300,1,NA
"AAMOKZPAFMKE","test",3,0,"apprentissage","na","na","To which family does this character belong?","na",".jpg","na","B2","na","1",500,"na","na","1","na","Your answer is wrong","Your answer is correct","FAMILY A","FAMILY B","FAMILY C","FAMILY D","na","na","na",9,3,110913,1,2112,1,NA
"AAMOKZPAFMKE","test",12,0,"apprentissage","na","na","To which family does this character belong?","na",".jpg","na","P3","na","4",500,"na","na","1","na","Your answer is wrong","Your answer is correct","FAMILY A","FAMILY B","FAMILY C","FAMILY D","na","na","na",10,28,114603,4,2066,1,NA
"AAMOKZPAFMKE","test",5,0,"apprentissage","na","na","To which family does this character belong?","na",".jpg","na","O4","na","3",500,"na","na","1","na","Your answer is wrong","Your answer is correct","FAMILY A","FAMILY B","FAMILY C","FAMILY D","na","na","na",11,21,117190,3,1057,1,NA
"AAMOKZPAFMKE","test",5,0,"apprentissage","na","na","To which family does this character belong?","na",".jpg","na","B4","na","1",500,"na","na","1","na","Your answer is wrong","Your answer is correct","FAMILY A","FAMILY B","FAMILY C","FAMILY D","na","na","na",12,5,121113,1,2475,1,NA
"AAMOKZPAFMKE","test",16,0,"apprentissage","na","na","To which family does this character belong?","na",".jpg","na","M6","na","2",500,"na","na","1","na","Your answer is wrong","Your answer is correct","FAMILY A","FAMILY B","FAMILY C","FAMILY D","na","na","na",13,15,124163,2,1624,1,NA
"AAMOKZPAFMKE","test",11,0,"apprentissage","na","na","To which family does this character belong?","na",".jpg","na","M2","na","2",500,"na","na","1","na","Your answer is wrong","Your answer is correct","FAMILY A","FAMILY B","FAMILY C","FAMILY D","na","na","na",14,11,126859,2,1289,1,NA
"AAMOKZPAFMKE","test",11,0,"apprentissage","na","na","To which family does this character belong?","na",".jpg","na","P2","na","4",500,"na","na","1","na","Your answer is wrong","Your answer is correct","FAMILY A","FAMILY B","FAMILY C","FAMILY D","na","na","na",15,27,129769,4,1678,1,NA
"AAMOKZPAFMKE","test",14,0,"apprentissage","na","na","To which family does this character belong?","na",".jpg","na","M5","na","2",500,"na","na","1","na","Your answer is wrong","Your answer is correct","FAMILY A","FAMILY B","FAMILY C","FAMILY D","na","na","na",16,14,134155,2,2612,1,NA
"AAMOKZPAFMKE","test",3,0,"apprentissage","na","na","To which family does this character belong?","na",".jpg","na","O2","na","3",500,"na","na","1","na","Your answer is wrong","Your answer is correct","FAMILY A","FAMILY B","FAMILY C","FAMILY D","na","na","na",17,19,138200,3,1906,1,NA
"AAMOKZPAFMKE","test",4,0,"apprentissage","na","na","To which family does this character belong?","na",".jpg","na","B3","na","1",500,"na","na","1","na","Your answer is wrong","Your answer is correct","FAMILY A","FAMILY B","FAMILY C","FAMILY D","na","na","na",18,4,141535,1,1981,1,NA
"AAMOKZPAFMKE","test",2,0,"apprentissage","na","na","To which family does this character belong?","na",".jpg","na","B1","na","1",500,"na","na","1","na","Your answer is wrong","Your answer is correct","FAMILY A","FAMILY B","FAMILY C","FAMILY D","na","na","na",19,2,144674,1,1879,1,NA
"AAMOKZPAFMKE","test",12,0,"apprentissage","na","na","To which family does this character belong?","na",".jpg","na","M3","na","2",500,"na","na","1","na","Your answer is wrong","Your answer is correct","FAMILY A","FAMILY B","FAMILY C","FAMILY D","na","na","na",20,12,149066,2,1560,1,NA
"AAMOKZPAFMKE","test",16,0,"apprentissage","na","na","To which family does this character belong?","na",".jpg","na","P6","na","4",500,"na","na","1","na","Your answer is wrong","Your answer is correct","FAMILY A","FAMILY B","FAMILY C","FAMILY D","na","na","na",21,31,152488,4,1657,1,NA
"AAMOKZPAFMKE","test",18,0,"apprentissage","na","na","To which family does this character belong?","na",".jpg","na","P8","na","4",500,"na","na","1","na","Your answer is wrong","Your answer is correct","FAMILY A","FAMILY B","FAMILY C","FAMILY D","na","na","na",22,33,155174,4,1163,1,NA
"AAMOKZPAFMKE","test",14,0,"apprentissage","na","na","To which family does this character belong?","na",".jpg","na","P5","na","4",500,"na","na","1","na","Your answer is wrong","Your answer is correct","FAMILY A","FAMILY B","FAMILY C","FAMILY D","na","na","na",23,30,157965,4,1418,1,NA
"AAMOKZPAFMKE","test",7,0,"apprentissage","na","na","To which family does this character belong?","na",".jpg","na","B6","na","1",500,"na","na","1","na","Your answer is wrong","Your answer is correct","FAMILY A","FAMILY B","FAMILY C","FAMILY D","na","na","na",24,7,163123,1,3860,1,NA
"AAMOKZPAFMKE","test",6,0,"apprentissage","na","na","To which family does this character belong?","na",".jpg","na","O5","na","3",500,"na","na","1","na","Your answer is wrong","Your answer is correct","FAMILY A","FAMILY B","FAMILY C","FAMILY D","na","na","na",25,22,165846,2,1541,0,NA
"AAMOKZPAFMKE","test",7,0,"apprentissage","na","na","To which family does this character belong?","na",".jpg","na","O6","na","3",500,"na","na","1","na","Your answer is wrong","Your answer is correct","FAMILY A","FAMILY B","FAMILY C","FAMILY D","na","na","na",26,23,171520,3,3034,1,NA
"AAMOKZPAFMKE","test",10,0,"apprentissage","na","na","To which family does this character belong?","na",".jpg","na","M1","na","2",500,"na","na","1","na","Your answer is wrong","Your answer is correct","FAMILY A","FAMILY B","FAMILY C","FAMILY D","na","na","na",27,10,174514,2,1616,1,NA
"AAMOKZPAFMKE","test",8,0,"apprentissage","na","na","To which family does this character belong?","na",".jpg","na","O7","na","3",500,"na","na","1","na","Your answer is wrong","Your answer is correct","FAMILY A","FAMILY B","FAMILY C","FAMILY D","na","na","na",28,24,176992,3,1210,1,NA
"AAMOKZPAFMKE","test",9,0,"apprentissage","na","na","To which family does this character belong?","na",".jpg","na","B8","na","1",500,"na","na","1","na","Your answer is wrong","Your answer is correct","FAMILY A","FAMILY B","FAMILY C","FAMILY D","na","na","na",29,9,180263,1,1738,1,NA
"AAMOKZPAFMKE","test",8,0,"apprentissage","na","na","To which family does this character belong?","na",".jpg","na","B7","na","1",500,"na","na","1","na","Your answer is wrong","Your answer is correct","FAMILY A","FAMILY B","FAMILY C","FAMILY D","na","na","na",30,8,182896,1,1421,1,NA
"AAMOKZPAFMKE","test",6,0,"apprentissage","na","na","To which family does this character belong?","na",".jpg","na","B5","na","1",500,"na","na","1","na","Your answer is wrong","Your answer is correct","FAMILY A","FAMILY B","FAMILY C","FAMILY D","na","na","na",31,6,185312,1,1195,1,NA
"AAMOKZPAFMKE","test",13,0,"apprentissage","na","na","To which family does this character belong?","na",".jpg","na","M4","na","2",500,"na","na","1","na","Your answer is wrong","Your answer is correct","FAMILY A","FAMILY B","FAMILY C","FAMILY D","na","na","na",32,13,187736,2,1110,1,NA
"AAMOKZPAFMKE","test",18,0,"apprentissage","na","na","To which family does this character belong?","na",".jpg","na","M8","na","2",500,"na","na","1","na","Your answer is wrong","Your answer is correct","FAMILY A","FAMILY B","FAMILY C","FAMILY D","na","na","na",33,17,192506,2,3278,1,NA
"AAMOKZPAFMKE","test",12,1,"ratings1","na","na","Your general feelings about this member are:<br><br>Very negatives 1 - 2 - 3 - 4 - 5 - 6 - 7 - 8 - 9 Very positives","na",".jpg","na","M4","na","na",500,"na","na","10","na","na","na","na","na","na","na","1 2 3 4 5 6 7 8 9","na","na",34,45,505451,2,4391,0,NA
"AAMOKZPAFMKE","test",11,1,"ratings1","na","na","Your general feelings about this member are:<br><br>Very negatives 1 - 2 - 3 - 4 - 5 - 6 - 7 - 8 - 9 Very positives","na",".jpg","na","O3","na","na",500,"na","na","10","na","na","na","na","na","na","na","1 2 3 4 5 6 7 8 9","na","na",35,60,511715,4,5754,0,NA
"AAMOKZPAFMKE","test",1,1,"ratings1","na","na","Your general feelings about this member are:<br><br>Very negatives 1 - 2 - 3 - 4 - 5 - 6 - 7 - 8 - 9 Very positives","na",".jpg","na","B1","na","na",500,"na","na","10","na","na","na","na","na","na","na","1 2 3 4 5 6 7 8 9","na","na",36,34,515241,8,3018,0,NA
"AAMOKZPAFMKE","test",9,1,"ratings1","na","na","Your general feelings about this member are:<br><br>Very negatives 1 - 2 - 3 - 4 - 5 - 6 - 7 - 8 - 9 Very positives","na",".jpg","na","M1","na","na",500,"na","na","10","na","na","na","na","na","na","na","1 2 3 4 5 6 7 8 9","na","na",37,42,518330,2,2580,0,NA
"AAMOKZPAFMKE","test",13,1,"ratings1","na","na","Your general feelings about this member are:<br><br>Very negatives 1 - 2 - 3 - 4 - 5 - 6 - 7 - 8 - 9 Very positives","na",".jpg","na","M5","na","na",500,"na","na","10","na","na","na","na","na","na","na","1 2 3 4 5 6 7 8 9","na","na",38,46,519405,2,565,0,NA
"AAMOKZPAFMKE","test",10,1,"ratings1","na","na","Your general feelings about this member are:<br><br>Very negatives 1 - 2 - 3 - 4 - 5 - 6 - 7 - 8 - 9 Very positives","na",".jpg","na","M2","na","na",500,"na","na","10","na","na","na","na","na","na","na","1 2 3 4 5 6 7 8 9","na","na",39,43,520556,2,640,0,NA
"AAMOKZPAFMKE","test",5,1,"ratings1","na","na","Your general feelings about this member are:<br><br>Very negatives 1 - 2 - 3 - 4 - 5 - 6 - 7 - 8 - 9 Very positives","na",".jpg","na","B5","na","na",500,"na","na","10","na","na","na","na","na","na","na","1 2 3 4 5 6 7 8 9","na","na",40,38,522165,8,1100,0,NA
"AAMOKZPAFMKE","test",15,1,"ratings1","na","na","Your general feelings about this member are:<br><br>Very negatives 1 - 2 - 3 - 4 - 5 - 6 - 7 - 8 - 9 Very positives","na",".jpg","na","O7","na","na",500,"na","na","10","na","na","na","na","na","na","na","1 2 3 4 5 6 7 8 9","na","na",41,64,525045,6,2372,0,NA
"AAMOKZPAFMKE","test",8,1,"ratings1","na","na","Your general feelings about this member are:<br><br>Very negatives 1 - 2 - 3 - 4 - 5 - 6 - 7 - 8 - 9 Very positives","na",".jpg","na","B8","na","na",500,"na","na","10","na","na","na","na","na","na","na","1 2 3 4 5 6 7 8 9","na","na",42,41,528333,9,2778,0,NA
"AAMOKZPAFMKE","test",4,1,"ratings1","na","na","Your general feelings about this member are:<br><br>Very negatives 1 - 2 - 3 - 4 - 5 - 6 - 7 - 8 - 9 Very positives","na",".jpg","na","B4","na","na",500,"na","na","10","na","na","na","na","na","na","na","1 2 3 4 5 6 7 8 9","na","na",43,37,532422,8,3580,0,NA
"AAMOKZPAFMKE","test",10,1,"ratings1","na","na","Your general feelings about this member are:<br><br>Very negatives 1 - 2 - 3 - 4 - 5 - 6 - 7 - 8 - 9 Very positives","na",".jpg","na","O2","na","na",500,"na","na","10","na","na","na","na","na","na","na","1 2 3 4 5 6 7 8 9","na","na",44,59,536607,4,3676,0,NA
"AAMOKZPAFMKE","test",8,1,"ratings1","na","na","Your general feelings about this member are:<br><br>Very negatives 1 - 2 - 3 - 4 - 5 - 6 - 7 - 8 - 9 Very positives","na",".jpg","na","P8","na","na",500,"na","na","10","na","na","na","na","na","na","na","1 2 3 4 5 6 7 8 9","na","na",45,57,541520,6,4404,0,NA
"AAMOKZPAFMKE","test",13,1,"ratings1","na","na","Your general feelings about this member are:<br><br>Very negatives 1 - 2 - 3 - 4 - 5 - 6 - 7 - 8 - 9 Very positives","na",".jpg","na","O5","na","na",500,"na","na","10","na","na","na","na","na","na","na","1 2 3 4 5 6 7 8 9","na","na",46,62,545983,4,3954,0,NA
"AAMOKZPAFMKE","test",15,1,"ratings1","na","na","Your general feelings about this member are:<br><br>Very negatives 1 - 2 - 3 - 4 - 5 - 6 - 7 - 8 - 9 Very positives","na",".jpg","na","M7","na","na",500,"na","na","10","na","na","na","na","na","na","na","1 2 3 4 5 6 7 8 9","na","na",47,48,547821,2,1328,0,NA
"AAMOKZPAFMKE","test",2,1,"ratings1","na","na","Your general feelings about this member are:<br><br>Very negatives 1 - 2 - 3 - 4 - 5 - 6 - 7 - 8 - 9 Very positives","na",".jpg","na","P2","na","na",500,"na","na","10","na","na","na","na","na","na","na","1 2 3 4 5 6 7 8 9","na","na",48,51,551098,6,2768,0,NA
"AAMOKZPAFMKE","test",3,1,"ratings1","na","na","Your general feelings about this member are:<br><br>Very negatives 1 - 2 - 3 - 4 - 5 - 6 - 7 - 8 - 9 Very positives","na",".jpg","na","P3","na","na",500,"na","na","10","na","na","na","na","na","na","na","1 2 3 4 5 6 7 8 9","na","na",49,52,555740,6,4132,0,NA
"AAMOKZPAFMKE","test",2,1,"ratings1","na","na","Your general feelings about this member are:<br><br>Very negatives 1 - 2 - 3 - 4 - 5 - 6 - 7 - 8 - 9 Very positives","na",".jpg","na","B2","na","na",500,"na","na","10","na","na","na","na","na","na","na","1 2 3 4 5 6 7 8 9","na","na",50,35,557945,9,1696,0,NA
"AAMOKZPAFMKE","test",5,1,"ratings1","na","na","Your general feelings about this member are:<br><br>Very negatives 1 - 2 - 3 - 4 - 5 - 6 - 7 - 8 - 9 Very positives","na",".jpg","na","P5","na","na",500,"na","na","10","na","na","na","na","na","na","na","1 2 3 4 5 6 7 8 9","na","na",51,54,561140,6,2687,0,NA
"AAMOKZPAFMKE","test",9,1,"ratings1","na","na","Your general feelings about this member are:<br><br>Very negatives 1 - 2 - 3 - 4 - 5 - 6 - 7 - 8 - 9 Very positives","na",".jpg","na","O1","na","na",500,"na","na","10","na","na","na","na","na","na","na","1 2 3 4 5 6 7 8 9","na","na",52,58,564229,4,2580,0,NA
"AAMOKZPAFMKE","test",7,1,"ratings1","na","na","Your general feelings about this member are:<br><br>Very negatives 1 - 2 - 3 - 4 - 5 - 6 - 7 - 8 - 9 Very positives","na",".jpg","na","B7","na","na",500,"na","na","10","na","na","na","na","na","na","na","1 2 3 4 5 6 7 8 9","na","na",53,40,566290,9,1552,0,NA
"AAMOKZPAFMKE","test",14,1,"ratings1","na","na","Your general feelings about this member are:<br><br>Very negatives 1 - 2 - 3 - 4 - 5 - 6 - 7 - 8 - 9 Very positives","na",".jpg","na","O6","na","na",500,"na","na","10","na","na","na","na","na","na","na","1 2 3 4 5 6 7 8 9","na","na",54,63,568917,4,2117,0,NA
"AAMOKZPAFMKE","test",4,1,"ratings1","na","na","Your general feelings about this member are:<br><br>Very negatives 1 - 2 - 3 - 4 - 5 - 6 - 7 - 8 - 9 Very positives","na",".jpg","na","P4","na","na",500,"na","na","10","na","na","na","na","na","na","na","1 2 3 4 5 6 7 8 9","na","na",55,53,570948,6,1522,0,NA
"AAMOKZPAFMKE","test",1,1,"ratings1","na","na","Your general feelings about this member are:<br><br>Very negatives 1 - 2 - 3 - 4 - 5 - 6 - 7 - 8 - 9 Very positives","na",".jpg","na","P1","na","na",500,"na","na","10","na","na","na","na","na","na","na","1 2 3 4 5 6 7 8 9","na","na",56,50,572370,4,913,0,NA
"AAMOKZPAFMKE","test",16,1,"ratings1","na","na","Your general feelings about this member are:<br><br>Very negatives 1 - 2 - 3 - 4 - 5 - 6 - 7 - 8 - 9 Very positives","na",".jpg","na","M8","na","na",500,"na","na","10","na","na","na","na","na","na","na","1 2 3 4 5 6 7 8 9","na","na",57,49,574805,1,1926,0,NA
"AAMOKZPAFMKE","test",12,1,"ratings1","na","na","Your general feelings about this member are:<br><br>Very negatives 1 - 2 - 3 - 4 - 5 - 6 - 7 - 8 - 9 Very positives","na",".jpg","na","O4","na","na",500,"na","na","10","na","na","na","na","na","na","na","1 2 3 4 5 6 7 8 9","na","na",58,61,579196,4,3882,0,NA
"AAMOKZPAFMKE","test",14,1,"ratings1","na","na","Your general feelings about this member are:<br><br>Very negatives 1 - 2 - 3 - 4 - 5 - 6 - 7 - 8 - 9 Very positives","na",".jpg","na","M6","na","na",500,"na","na","10","na","na","na","na","na","na","na","1 2 3 4 5 6 7 8 9","na","na",59,47,581193,1,1488,0,NA
"AAMOKZPAFMKE","test",7,1,"ratings1","na","na","Your general feelings about this member are:<br><br>Very negatives 1 - 2 - 3 - 4 - 5 - 6 - 7 - 8 - 9 Very positives","na",".jpg","na","P7","na","na",500,"na","na","10","na","na","na","na","na","na","na","1 2 3 4 5 6 7 8 9","na","na",60,56,584189,6,2483,0,NA
"AAMOKZPAFMKE","test",16,1,"ratings1","na","na","Your general feelings about this member are:<br><br>Very negatives 1 - 2 - 3 - 4 - 5 - 6 - 7 - 8 - 9 Very positives","na",".jpg","na","O8","na","na",500,"na","na","10","na","na","na","na","na","na","na","1 2 3 4 5 6 7 8 9","na","na",61,65,587836,4,3138,0,NA
"AAMOKZPAFMKE","test",6,1,"ratings1","na","na","Your general feelings about this member are:<br><br>Very negatives 1 - 2 - 3 - 4 - 5 - 6 - 7 - 8 - 9 Very positives","na",".jpg","na","B6","na","na",500,"na","na","10","na","na","na","na","na","na","na","1 2 3 4 5 6 7 8 9","na","na",62,39,589914,9,1569,0,NA
"AAMOKZPAFMKE","test",11,1,"ratings1","na","na","Your general feelings about this member are:<br><br>Very negatives 1 - 2 - 3 - 4 - 5 - 6 - 7 - 8 - 9 Very positives","na",".jpg","na","M3","na","na",500,"na","na","10","na","na","na","na","na","na","na","1 2 3 4 5 6 7 8 9","na","na",63,44,592699,1,2276,0,NA
"AAMOKZPAFMKE","test",3,1,"ratings1","na","na","Your general feelings about this member are:<br><br>Very negatives 1 - 2 - 3 - 4 - 5 - 6 - 7 - 8 - 9 Very positives","na",".jpg","na","B3","na","na",500,"na","na","10","na","na","na","na","na","na","na","1 2 3 4 5 6 7 8 9","na","na",64,36,593940,9,732,0,NA
"AAMOKZPAFMKE","test",6,1,"ratings1","na","na","Your general feelings about this member are:<br><br>Very negatives 1 - 2 - 3 - 4 - 5 - 6 - 7 - 8 - 9 Very positives","na",".jpg","na","P6","na","na",500,"na","na","10","na","na","na","na","na","na","na","1 2 3 4 5 6 7 8 9","na","na",65,55,599794,6,5336,0,NA
"AAMOKZPAFMKE","test",16,1,"memory1","na","na","This member was presented with a member of Family C or D:<br><br>","na",".jpg","na","M8","na","na",500,"na","na","10","na","na","na","Family C","I don't know","Family D","na","1 2 3 4 5 6 7 8 9","na","na",66,177,616565,1,12807,0,NA
"AAMOKZPAFMKE","test",9,1,"memory1","na","na","This member was presented with a member of Family C or D:<br><br>","na",".jpg","na","M1","na","na",500,"na","na","10","na","na","na","Family C","I don't know","Family D","na","1 2 3 4 5 6 7 8 9","na","na",67,170,619712,1,2639,0,NA
"AAMOKZPAFMKE","test",11,1,"memory1","na","na","This member was presented with a member of Family C or D:<br><br>","na",".jpg","na","M3","na","na",500,"na","na","10","na","na","na","Family C","I don't know","Family D","na","1 2 3 4 5 6 7 8 9","na","na",68,172,621461,1,1240,0,NA
"AAMOKZPAFMKE","test",6,1,"memory1","na","na","This member was presented with a member of Family C or D:<br><br>","na",".jpg","na","B6","na","na",500,"na","na","10","na","na","na","Family C","I don't know","Family D","na","1 2 3 4 5 6 7 8 9","na","na",69,167,634215,1,12245,0,NA
"AAMOKZPAFMKE","test",14,1,"memory1","na","na","This member was presented with a member of Family C or D:<br><br>","na",".jpg","na","M6","na","na",500,"na","na","10","na","na","na","Family C","I don't know","Family D","na","1 2 3 4 5 6 7 8 9","na","na",70,175,637083,1,2353,0,NA
"AAMOKZPAFMKE","test",2,1,"memory1","na","na","This member was presented with a member of Family C or D:<br><br>","na",".jpg","na","B2","na","na",500,"na","na","10","na","na","na","Family C","I don't know","Family D","na","1 2 3 4 5 6 7 8 9","na","na",71,163,638935,1,1340,0,NA
"AAMOKZPAFMKE","test",7,1,"memory1","na","na","This member was presented with a member of Family C or D:<br><br>","na",".jpg","na","B7","na","na",500,"na","na","10","na","na","na","Family C","I don't know","Family D","na","1 2 3 4 5 6 7 8 9","na","na",72,168,640482,1,1039,0,NA
"AAMOKZPAFMKE","test",4,1,"memory1","na","na","This member was presented with a member of Family C or D:<br><br>","na",".jpg","na","B4","na","na",500,"na","na","10","na","na","na","Family C","I don't know","Family D","na","1 2 3 4 5 6 7 8 9","na","na",73,165,641914,1,924,0,NA
"AAMOKZPAFMKE","test",13,1,"memory1","na","na","This member was presented with a member of Family C or D:<br><br>","na",".jpg","na","M5","na","na",500,"na","na","10","na","na","na","Family C","I don't know","Family D","na","1 2 3 4 5 6 7 8 9","na","na",74,174,643918,1,1496,0,NA
"AAMOKZPAFMKE","test",10,1,"memory1","na","na","This member was presented with a member of Family C or D:<br><br>","na",".jpg","na","M2","na","na",500,"na","na","10","na","na","na","Family C","I don't know","Family D","na","1 2 3 4 5 6 7 8 9","na","na",75,171,645294,1,867,0,NA
"AAMOKZPAFMKE","test",5,1,"memory1","na","na","This member was presented with a member of Family C or D:<br><br>","na",".jpg","na","B5","na","na",500,"na","na","10","na","na","na","Family C","I don't know","Family D","na","1 2 3 4 5 6 7 8 9","na","na",76,166,646407,1,605,0,NA
"AAMOKZPAFMKE","test",1,1,"memory1","na","na","This member was presented with a member of Family C or D:<br><br>","na",".jpg","na","B1","na","na",500,"na","na","10","na","na","na","Family C","I don't know","Family D","na","1 2 3 4 5 6 7 8 9","na","na",77,162,648139,1,1224,0,NA
"AAMOKZPAFMKE","test",15,1,"memory1","na","na","This member was presented with a member of Family C or D:<br><br>","na",".jpg","na","M7","na","na",500,"na","na","10","na","na","na","Family C","I don't know","Family D","na","1 2 3 4 5 6 7 8 9","na","na",78,176,650708,1,2060,0,NA
"AAMOKZPAFMKE","test",3,1,"memory1","na","na","This member was presented with a member of Family C or D:<br><br>","na",".jpg","na","B3","na","na",500,"na","na","10","na","na","na","Family C","I don't know","Family D","na","1 2 3 4 5 6 7 8 9","na","na",79,164,652746,1,1528,0,NA
"AAMOKZPAFMKE","test",8,1,"memory1","na","na","This member was presented with a member of Family C or D:<br><br>","na",".jpg","na","B8","na","na",500,"na","na","10","na","na","na","Family C","I don't know","Family D","na","1 2 3 4 5 6 7 8 9","na","na",80,169,658250,1,4995,0,NA
"AAMOKZPAFMKE","test",12,1,"memory1","na","na","This member was presented with a member of Family C or D:<br><br>","na",".jpg","na","M4","na","na",500,"na","na","10","na","na","na","Family C","I don't know","Family D","na","1 2 3 4 5 6 7 8 9","na","na",81,173,659713,1,955,0,NA
"AAMOKZPAFMKE","test",1,0,"RWA","na","na","Our country needs a powerful leader in order to destroy the radical and immoral currents prevailing in society today.<br><br>Very negative 1 - 2 - 3 - 4 - 5 - 6 - 7 Very positive","na","word","na","na","na","na",500,"na","na","14","na","na","na","na","na","na","na","1 2 3 4 5 6 7","na","na",82,226,675645,6,9263,0,NA
"AAMOKZPAFMKE","test",7,0,"RWA","na","na","It would be best if newspapers were censored so that people would not be able to get hold of destructive and disgusting material.<br><br>Very negative 1 - 2 - 3 - 4 - 5 - 6 - 7 Very positive","na","word","na","na","na","na",500,"na","na","14","na","na","na","na","na","na","na","7 2 3 4 5 6 7","na","na",83,232,683960,3,7808,0,NA
"AAMOKZPAFMKE","test",9,0,"RWA","na","na","Our forefathers ought to be honored more for the way they have built our society at the same time we ought to put an end to those forces destroying it.<br><br>Very negative 1 - 2 - 3 - 4 - 5 - 6 - 7 Very positive","na","word","na","na","na","na",500,"na","na","14","na","na","na","na","na","na","na","9 2 3 4 5 6 7","na","na",84,234,687471,5,2996,0,NA
"AAMOKZPAFMKE","test",14,0,"RWA","na","na","The situation in the society of today would be improved if troublemakers were treated with reason and humanity.<br><br>Very negative 1 - 2 - 3 - 4 - 5 - 6 - 7 Very positive","na","word","na","na","na","na",500,"na","na","14","na","na","na","na","na","na","na","14 2 3 4 5 6 7","na","na",85,239,706976,3,18996,0,NA
"AAMOKZPAFMKE","test",6,0,"RWA","na","na","The society needs to show openness towards people thinking differently rather than a strong leader the world is not particularly evil or dangerous.<br><br>Very negative 1 - 2 - 3 - 4 - 5 - 6 - 7 Very positive","na","word","na","na","na","na",500,"na","na","14","na","na","na","na","na","na","na","6 2 3 4 5 6 7","na","na",86,231,715071,7,7586,0,NA
"AAMOKZPAFMKE","test",11,0,"RWA","na","na","There are many radical immoral people trying to ruin things the society ought to stop them.<br><br>Very negative 1 - 2 - 3 - 4 - 5 - 6 - 7 Very positive","na","word","na","na","na","na",500,"na","na","14","na","na","na","na","na","na","na","11 2 3 4 5 6 7","na","na",87,236,719761,4,4181,0,NA
"AAMOKZPAFMKE","test",4,0,"RWA","na","na","Our society would be better off if we showed tolerance and understanding for untraditional values and opinions.<br><br>Very negative 1 - 2 - 3 - 4 - 5 - 6 - 7 Very positive","na","word","na","na","na","na",500,"na","na","14","na","na","na","na","na","na","na","4 2 3 4 5 6 7","na","na",88,229,733094,7,12826,0,NA
"AAMOKZPAFMKE","test",8,0,"RWA","na","na","Many good people challenge the state criticize the church and ignore the normal way of living.<br><br>Very negative 1 - 2 - 3 - 4 - 5 - 6 - 7 Very positive","na","word","na","na","na","na",500,"na","na","14","na","na","na","na","na","na","na","8 2 3 4 5 6 7","na","na",89,233,748632,4,15030,0,NA
"AAMOKZPAFMKE","test",5,0,"RWA","na","na","Gods laws about abortion pornography and marriage must be strictly followed before it is too late violations must be punished.<br><br>Very negative 1 - 2 - 3 - 4 - 5 - 6 - 7 Very positive","na","word","na","na","na","na",500,"na","na","14","na","na","na","na","na","na","na","5 2 3 4 5 6 7","na","na",90,230,751550,4,2405,0,NA
"AAMOKZPAFMKE","test",3,0,"RWA","na","na","The old-fashioned ways and old-fashioned values still show the best way to live.<br><br>Very negative 1 - 2 - 3 - 4 - 5 - 6 - 7 Very positive","na","word","na","na","na","na",500,"na","na","14","na","na","na","na","na","na","na","3 2 3 4 5 6 7","na","na",91,228,803394,7,51336,0,NA
"AAMOKZPAFMKE","test",12,0,"RWA","na","na","It is better to accept bad literature than to censor it.<br><br>Very negative 1 - 2 - 3 - 4 - 5 - 6 - 7 Very positive","na","word","na","na","na","na",500,"na","na","14","na","na","na","na","na","na","na","12 2 3 4 5 6 7","na","na",92,237,805908,7,2007,0,NA
"AAMOKZPAFMKE","test",13,0,"RWA","na","na","Facts show that we have to be harder against crime and sexual immorality in order to uphold law and order.<br><br>Very negative 1 - 2 - 3 - 4 - 5 - 6 - 7 Very positive","na","word","na","na","na","na",500,"na","na","14","na","na","na","na","na","na","na","13 2 3 4 5 6 7","na","na",93,238,839049,7,32632,0,NA
"AAMOKZPAFMKE","test",2,0,"RWA","na","na","Our country needs free thinkers who will have the courage to stand up against traditional ways even if this upsets many people.<br><br>Very negative 1 - 2 - 3 - 4 - 5 - 6 - 7 Very positive","na","word","na","na","na","na",500,"na","na","14","na","na","na","na","na","na","na","2 2 3 4 5 6 7","na","na",94,227,846512,4,6953,0,NA
"AAMOKZPAFMKE","test",10,0,"RWA","na","na","People ought to put less attention to the Bible and religion instead they ought to develop their own moral standards.<br><br>Very negative 1 - 2 - 3 - 4 - 5 - 6 - 7 Very positive","na","word","na","na","na","na",500,"na","na","14","na","na","na","na","na","na","na","10 2 3 4 5 6 7","na","na",95,235,852724,6,5705,0,NA
"AAMOKZPAFMKE","test",15,0,"RWA","na","na","If the society so wants it is the duty of every true citizen to help eliminate the evil that poisons our country from within.<br><br>Very negative 1 - 2 - 3 - 4 - 5 - 6 - 7 Very positive","na","word","na","na","na","na",500,"na","na","14","na","na","na","na","na","na","na","15 2 3 4 5 6 7","na","na",96,240,885895,4,32664,0,NA
"AAMOKZPAFMKE","form",8,0,"SECS","na","na","na","Traditional values","word","1","na","na","na",500,"na","na","15","na","na","na","na","na","na","na","na","slider","0_100_5",97,253,1018077,75,7316,0,NA
"AAMOKZPAFMKE","form",6,0,"SECS","na","na","na","Gun ownership","word","1","na","na","na",500,"na","na","15","na","na","na","na","na","na","na","na","slider","0_100_5",NA,NA,1023908,5,5305,0,NA
"AAMOKZPAFMKE","form",12,0,"SECS","na","na","na","Patriotism","word","1","na","na","na",500,"na","na","15","na","na","na","na","na","na","na","na","slider","0_100_5",NA,NA,1027391,90,2958,0,NA
"AAMOKZPAFMKE","form",11,0,"SECS","na","na","na","The family unit","word","1","na","na","na",500,"na","na","15","na","na","na","na","na","na","na","na","slider","0_100_5",NA,NA,1031826,95,3914,0,NA
"AAMOKZPAFMKE","form",2,0,"SECS","na","na","na","Limited government","word","1","na","na","na",500,"na","na","15","na","na","na","na","na","na","na","na","slider","0_100_5",NA,NA,1036422,70,4074,0,NA
"AAMOKZPAFMKE","form",1,0,"SECS","na","na","na","Abortion","word","1","na","na","na",500,"na","na","15","na","na","na","na","na","na","na","na","slider","0_100_5",NA,NA,1040381,50,3437,0,NA
"AAMOKZPAFMKE","form",3,0,"SECS","na","na","na","Military and national security","word","1","na","na","na",500,"na","na","15","na","na","na","na","na","na","na","na","slider","0_100_5",NA,NA,1044099,70,3192,0,NA
"AAMOKZPAFMKE","form",4,0,"SECS","na","na","na","Religion","word","1","na","na","na",500,"na","na","15","na","na","na","na","na","na","na","na","slider","0_100_5",NA,NA,1048102,50,3480,0,NA
"AAMOKZPAFMKE","form",10,0,"SECS","na","na","na","Business","word","1","na","na","na",500,"na","na","15","na","na","na","na","na","na","na","na","slider","0_100_5",NA,NA,1051599,80,2974,0,NA
"AAMOKZPAFMKE","form",7,0,"SECS","na","na","na","Traditional marriage","word","1","na","na","na",500,"na","na","15","na","na","na","na","na","na","na","na","slider","0_100_5",NA,NA,1055797,50,3677,0,NA
"AAMOKZPAFMKE","form",9,0,"SECS","na","na","na","Fiscal responsibility","word","1","na","na","na",500,"na","na","15","na","na","na","na","na","na","na","na","slider","0_100_5",NA,NA,1059388,90,3067,0,NA
"AAMOKZPAFMKE","form",5,0,"SECS","na","na","na","Welfare benefits","word","1","na","na","na",500,"na","na","15","na","na","na","na","na","na","na","na","slider","0_100_5",NA,NA,1063533,65,3619,0,NA
"AAMOKZPAFMKE","test",18,0,"seriousness","Almost Done !","na","It would be very helpful if you could tell us at this point whether you have taken part seriously<br><br>so that we can use your answers for our scientific analysis or whether you were just clicking through to take a look at the survey?","na","word","na","na","na","na",500,"na","na","na","na","na","na","I have taken part seriously","I have just clicked through Please throw my data away","na","na","na","na","na",NA,NA,1068639,1,4600,0,NA
"AAPQGRFDBCHI","test",1,0,"apprentissage","na","na","Watch carefully these four families","na",".jpg","na","learn04","na","na",500,"na","na","na","na","na","na","NEXT","na","na","na","na","na","na",1,1,114936,1,18430,0,NA
"AAPQGRFDBCHI","test",8,0,"apprentissage","na","na","To which family does this character belong?","na",".jpg","na","B7","na","1",500,"na","na","1","na","Your answer is wrong","Your answer is correct","FAMILY A","FAMILY B","FAMILY C","FAMILY D","na","na","na",2,8,122329,2,6882,0,NA
"AAPQGRFDBCHI","test",8,0,"apprentissage","na","na","To which family does this character belong?","na",".jpg","na","O7","na","3",500,"na","na","1","na","Your answer is wrong","Your answer is correct","FAMILY A","FAMILY B","FAMILY C","FAMILY D","na","na","na",3,24,126105,4,1993,0,NA
"AAPQGRFDBCHI","test",17,0,"apprentissage","na","na","To which family does this character belong?","na",".jpg","na","P7","na","4",500,"na","na","1","na","Your answer is wrong","Your answer is correct","FAMILY A","FAMILY B","FAMILY C","FAMILY D","na","na","na",4,32,128962,4,1281,1,NA
"AAPQGRFDBCHI","test",7,0,"apprentissage","na","na","To which family does this character belong?","na",".jpg","na","B6","na","1",500,"na","na","1","na","Your answer is wrong","Your answer is correct","FAMILY A","FAMILY B","FAMILY C","FAMILY D","na","na","na",5,7,133442,2,3043,0,NA
"AAPQGRFDBCHI","test",13,0,"apprentissage","na","na","To which family does this character belong?","na",".jpg","na","P4","na","4",500,"na","na","1","na","Your answer is wrong","Your answer is correct","FAMILY A","FAMILY B","FAMILY C","FAMILY D","na","na","na",6,29,136265,4,1437,1,NA
"AAPQGRFDBCHI","test",11,0,"apprentissage","na","na","To which family does this character belong?","na",".jpg","na","M2","na","2",500,"na","na","1","na","Your answer is wrong","Your answer is correct","FAMILY A","FAMILY B","FAMILY C","FAMILY D","na","na","na",7,11,138615,1,1089,0,NA
"AAPQGRFDBCHI","test",7,0,"apprentissage","na","na","To which family does this character belong?","na",".jpg","na","O6","na","3",500,"na","na","1","na","Your answer is wrong","Your answer is correct","FAMILY A","FAMILY B","FAMILY C","FAMILY D","na","na","na",8,23,175972,3,35872,1,NA
"AAPQGRFDBCHI","test",14,0,"apprentissage","na","na","To which family does this character belong?","na",".jpg","na","P5","na","4",500,"na","na","1","na","Your answer is wrong","Your answer is correct","FAMILY A","FAMILY B","FAMILY C","FAMILY D","na","na","na",9,30,178742,4,1125,1,NA
"AAPQGRFDBCHI","test",9,0,"apprentissage","na","na","To which family does this character belong?","na",".jpg","na","B8","na","1",500,"na","na","1","na","Your answer is wrong","Your answer is correct","FAMILY A","FAMILY B","FAMILY C","FAMILY D","na","na","na",10,9,181698,1,1599,1,NA
"AAPQGRFDBCHI","test",3,0,"apprentissage","na","na","To which family does this character belong?","na",".jpg","na","B2","na","1",500,"na","na","1","na","Your answer is wrong","Your answer is correct","FAMILY A","FAMILY B","FAMILY C","FAMILY D","na","na","na",11,3,184133,2,941,0,NA
"AAPQGRFDBCHI","test",16,0,"apprentissage","na","na","To which family does this character belong?","na",".jpg","na","P6","na","4",500,"na","na","1","na","Your answer is wrong","Your answer is correct","FAMILY A","FAMILY B","FAMILY C","FAMILY D","na","na","na",12,31,187507,3,1778,0,NA
"AAPQGRFDBCHI","test",18,0,"apprentissage","na","na","To which family does this character belong?","na",".jpg","na","M8","na","2",500,"na","na","1","na","Your answer is wrong","Your answer is correct","FAMILY A","FAMILY B","FAMILY C","FAMILY D","na","na","na",13,17,190735,2,1868,1,NA
"AAPQGRFDBCHI","test",5,0,"apprentissage","na","na","To which family does this character belong?","na",".jpg","na","B4","na","1",500,"na","na","1","na","Your answer is wrong","Your answer is correct","FAMILY A","FAMILY B","FAMILY C","FAMILY D","na","na","na",14,5,193434,1,1182,1,NA
"AAPQGRFDBCHI","test",2,0,"apprentissage","na","na","To which family does this character belong?","na",".jpg","na","B1","na","1",500,"na","na","1","na","Your answer is wrong","Your answer is correct","FAMILY A","FAMILY B","FAMILY C","FAMILY D","na","na","na",15,2,196390,1,1711,1,NA
"AAPQGRFDBCHI","test",2,0,"apprentissage","na","na","To which family does this character belong?","na",".jpg","na","O1","na","3",500,"na","na","1","na","Your answer is wrong","Your answer is correct","FAMILY A","FAMILY B","FAMILY C","FAMILY D","na","na","na",16,18,198852,3,1283,1,NA
"AAPQGRFDBCHI","test",12,0,"apprentissage","na","na","To which family does this character belong?","na",".jpg","na","P3","na","4",500,"na","na","1","na","Your answer is wrong","Your answer is correct","FAMILY A","FAMILY B","FAMILY C","FAMILY D","na","na","na",17,28,201243,4,1038,1,NA
"AAPQGRFDBCHI","test",12,0,"apprentissage","na","na","To which family does this character belong?","na",".jpg","na","M3","na","2",500,"na","na","1","na","Your answer is wrong","Your answer is correct","FAMILY A","FAMILY B","FAMILY C","FAMILY D","na","na","na",18,12,203654,2,1123,1,NA
"AAPQGRFDBCHI","test",3,0,"apprentissage","na","na","To which family does this character belong?","na",".jpg","na","O2","na","3",500,"na","na","1","na","Your answer is wrong","Your answer is correct","FAMILY A","FAMILY B","FAMILY C","FAMILY D","na","na","na",19,19,207788,3,2963,1,NA
"AAPQGRFDBCHI","test",14,0,"apprentissage","na","na","To which family does this character belong?","na",".jpg","na","M5","na","2",500,"na","na","1","na","Your answer is wrong","Your answer is correct","FAMILY A","FAMILY B","FAMILY C","FAMILY D","na","na","na",20,14,210423,2,1372,1,NA
"AAPQGRFDBCHI","test",10,0,"apprentissage","na","na","To which family does this character belong?","na",".jpg","na","M1","na","2",500,"na","na","1","na","Your answer is wrong","Your answer is correct","FAMILY A","FAMILY B","FAMILY C","FAMILY D","na","na","na",21,10,212816,1,1253,0,NA
"AAPQGRFDBCHI","test",11,0,"apprentissage","na","na","To which family does this character belong?","na",".jpg","na","P2","na","4",500,"na","na","1","na","Your answer is wrong","Your answer is correct","FAMILY A","FAMILY B","FAMILY C","FAMILY D","na","na","na",22,27,215418,4,1441,1,NA
"AAPQGRFDBCHI","test",17,0,"apprentissage","na","na","To which family does this character belong?","na",".jpg","na","M7","na","2",500,"na","na","1","na","Your answer is wrong","Your answer is correct","FAMILY A","FAMILY B","FAMILY C","FAMILY D","na","na","na",23,16,217828,2,1324,1,NA
"AAPQGRFDBCHI","test",5,0,"apprentissage","na","na","To which family does this character belong?","na",".jpg","na","O4","na","3",500,"na","na","1","na","Your answer is wrong","Your answer is correct","FAMILY A","FAMILY B","FAMILY C","FAMILY D","na","na","na",24,21,220094,3,1065,1,NA
"AAPQGRFDBCHI","test",4,0,"apprentissage","na","na","To which family does this character belong?","na",".jpg","na","O3","na","3",500,"na","na","1","na","Your answer is wrong","Your answer is correct","FAMILY A","FAMILY B","FAMILY C","FAMILY D","na","na","na",25,20,222122,3,940,1,NA
"AAPQGRFDBCHI","test",16,0,"apprentissage","na","na","To which family does this character belong?","na",".jpg","na","M6","na","2",500,"na","na","1","na","Your answer is wrong","Your answer is correct","FAMILY A","FAMILY B","FAMILY C","FAMILY D","na","na","na",26,15,224404,2,1126,1,NA
"AAPQGRFDBCHI","test",6,0,"apprentissage","na","na","To which family does this character belong?","na",".jpg","na","O5","na","3",500,"na","na","1","na","Your answer is wrong","Your answer is correct","FAMILY A","FAMILY B","FAMILY C","FAMILY D","na","na","na",27,22,226588,3,1085,1,NA
"AAPQGRFDBCHI","test",4,0,"apprentissage","na","na","To which family does this character belong?","na",".jpg","na","B3","na","1",500,"na","na","1","na","Your answer is wrong","Your answer is correct","FAMILY A","FAMILY B","FAMILY C","FAMILY D","na","na","na",28,4,228748,1,1050,1,NA
"AAPQGRFDBCHI","test",18,0,"apprentissage","na","na","To which family does this character belong?","na",".jpg","na","P8","na","4",500,"na","na","1","na","Your answer is wrong","Your answer is correct","FAMILY A","FAMILY B","FAMILY C","FAMILY D","na","na","na",29,33,231028,3,1111,0,NA
"AAPQGRFDBCHI","test",9,0,"apprentissage","na","na","To which family does this character belong?","na",".jpg","na","O8","na","3",500,"na","na","1","na","Your answer is wrong","Your answer is correct","FAMILY A","FAMILY B","FAMILY C","FAMILY D","na","na","na",30,25,233772,3,1621,1,NA
"AAPQGRFDBCHI","test",10,0,"apprentissage","na","na","To which family does this character belong?","na",".jpg","na","P1","na","4",500,"na","na","1","na","Your answer is wrong","Your answer is correct","FAMILY A","FAMILY B","FAMILY C","FAMILY D","na","na","na",31,26,235964,4,1041,1,NA
"AAPQGRFDBCHI","test",13,0,"apprentissage","na","na","To which family does this character belong?","na",".jpg","na","M4","na","2",500,"na","na","1","na","Your answer is wrong","Your answer is correct","FAMILY A","FAMILY B","FAMILY C","FAMILY D","na","na","na",32,13,238041,2,1024,1,NA
"AAPQGRFDBCHI","test",6,0,"apprentissage","na","na","To which family does this character belong?","na",".jpg","na","B5","na","1",500,"na","na","1","na","Your answer is wrong","Your answer is correct","FAMILY A","FAMILY B","FAMILY C","FAMILY D","na","na","na",33,6,240246,1,1144,1,NA
"AAPQGRFDBCHI","test",11,4,"ratings4","na","na","Your general feelings about this member are:<br><br>Very negatives 1 - 2 - 3 - 4 - 5 - 6 - 7 - 8 - 9 Very positives","na",".jpg","na","O3","na","na",500,"na","na","13","na","na","na","na","na","na","na","1 2 3 4 5 6 7 8 9","na","na",34,156,551786,4,2367,0,NA
"AAPQGRFDBCHI","test",6,4,"ratings4","na","na","Your general feelings about this member are:<br><br>Very negatives 1 - 2 - 3 - 4 - 5 - 6 - 7 - 8 - 9 Very positives","na",".jpg","na","B6","na","na",500,"na","na","13","na","na","na","na","na","na","na","1 2 3 4 5 6 7 8 9","na","na",35,135,554666,5,2374,0,NA
"AAPQGRFDBCHI","test",1,4,"ratings4","na","na","Your general feelings about this member are:<br><br>Very negatives 1 - 2 - 3 - 4 - 5 - 6 - 7 - 8 - 9 Very positives","na",".jpg","na","P1","na","na",500,"na","na","13","na","na","na","na","na","na","na","1 2 3 4 5 6 7 8 9","na","na",36,146,557242,5,2065,0,NA
"AAPQGRFDBCHI","test",7,4,"ratings4","na","na","Your general feelings about this member are:<br><br>Very negatives 1 - 2 - 3 - 4 - 5 - 6 - 7 - 8 - 9 Very positives","na",".jpg","na","P7","na","na",500,"na","na","13","na","na","na","na","na","na","na","1 2 3 4 5 6 7 8 9","na","na",37,152,559258,4,1507,0,NA
"AAPQGRFDBCHI","test",2,4,"ratings4","na","na","Your general feelings about this member are:<br><br>Very negatives 1 - 2 - 3 - 4 - 5 - 6 - 7 - 8 - 9 Very positives","na",".jpg","na","B2","na","na",500,"na","na","13","na","na","na","na","na","na","na","1 2 3 4 5 6 7 8 9","na","na",38,131,562158,3,2393,0,NA
"AAPQGRFDBCHI","test",9,4,"ratings4","na","na","Your general feelings about this member are:<br><br>Very negatives 1 - 2 - 3 - 4 - 5 - 6 - 7 - 8 - 9 Very positives","na",".jpg","na","O1","na","na",500,"na","na","13","na","na","na","na","na","na","na","1 2 3 4 5 6 7 8 9","na","na",39,154,564566,5,1899,0,NA
"AAPQGRFDBCHI","test",11,4,"ratings4","na","na","Your general feelings about this member are:<br><br>Very negatives 1 - 2 - 3 - 4 - 5 - 6 - 7 - 8 - 9 Very positives","na",".jpg","na","M3","na","na",500,"na","na","13","na","na","na","na","na","na","na","1 2 3 4 5 6 7 8 9","na","na",40,140,567333,3,2260,0,NA
"AAPQGRFDBCHI","test",10,4,"ratings4","na","na","Your general feelings about this member are:<br><br>Very negatives 1 - 2 - 3 - 4 - 5 - 6 - 7 - 8 - 9 Very positives","na",".jpg","na","M2","na","na",500,"na","na","13","na","na","na","na","na","na","na","1 2 3 4 5 6 7 8 9","na","na",41,139,568909,3,1067,0,NA
"AAPQGRFDBCHI","test",4,4,"ratings4","na","na","Your general feelings about this member are:<br><br>Very negatives 1 - 2 - 3 - 4 - 5 - 6 - 7 - 8 - 9 Very positives","na",".jpg","na","B4","na","na",500,"na","na","13","na","na","na","na","na","na","na","1 2 3 4 5 6 7 8 9","na","na",42,133,571497,5,2079,0,NA
"AAPQGRFDBCHI","test",4,4,"ratings4","na","na","Your general feelings about this member are:<br><br>Very negatives 1 - 2 - 3 - 4 - 5 - 6 - 7 - 8 - 9 Very positives","na",".jpg","na","P4","na","na",500,"na","na","13","na","na","na","na","na","na","na","1 2 3 4 5 6 7 8 9","na","na",43,149,573543,5,1540,0,NA
"AAPQGRFDBCHI","test",7,4,"ratings4","na","na","Your general feelings about this member are:<br><br>Very negatives 1 - 2 - 3 - 4 - 5 - 6 - 7 - 8 - 9 Very positives","na",".jpg","na","B7","na","na",500,"na","na","13","na","na","na","na","na","na","na","1 2 3 4 5 6 7 8 9","na","na",44,136,576367,3,2316,0,NA
"AAPQGRFDBCHI","test",5,4,"ratings4","na","na","Your general feelings about this member are:<br><br>Very negatives 1 - 2 - 3 - 4 - 5 - 6 - 7 - 8 - 9 Very positives","na",".jpg","na","P5","na","na",500,"na","na","13","na","na","na","na","na","na","na","1 2 3 4 5 6 7 8 9","na","na",45,150,579033,6,2156,0,NA
"AAPQGRFDBCHI","test",12,4,"ratings4","na","na","Your general feelings about this member are:<br><br>Very negatives 1 - 2 - 3 - 4 - 5 - 6 - 7 - 8 - 9 Very positives","na",".jpg","na","O4","na","na",500,"na","na","13","na","na","na","na","na","na","na","1 2 3 4 5 6 7 8 9","na","na",46,157,580732,5,1192,0,NA
"AAPQGRFDBCHI","test",6,4,"ratings4","na","na","Your general feelings about this member are:<br><br>Very negatives 1 - 2 - 3 - 4 - 5 - 6 - 7 - 8 - 9 Very positives","na",".jpg","na","P6","na","na",500,"na","na","13","na","na","na","na","na","na","na","1 2 3 4 5 6 7 8 9","na","na",47,151,582702,5,1464,0,NA
"AAPQGRFDBCHI","test",13,4,"ratings4","na","na","Your general feelings about this member are:<br><br>Very negatives 1 - 2 - 3 - 4 - 5 - 6 - 7 - 8 - 9 Very positives","na",".jpg","na","O5","na","na",500,"na","na","13","na","na","na","na","na","na","na","1 2 3 4 5 6 7 8 9","na","na",48,158,584153,4,944,0,NA
"AAPQGRFDBCHI","test",15,4,"ratings4","na","na","Your general feelings about this member are:<br><br>Very negatives 1 - 2 - 3 - 4 - 5 - 6 - 7 - 8 - 9 Very positives","na",".jpg","na","M7","na","na",500,"na","na","13","na","na","na","na","na","na","na","1 2 3 4 5 6 7 8 9","na","na",49,144,586200,2,1537,0,NA
"AAPQGRFDBCHI","test",1,4,"ratings4","na","na","Your general feelings about this member are:<br><br>Very negatives 1 - 2 - 3 - 4 - 5 - 6 - 7 - 8 - 9 Very positives","na",".jpg","na","B1","na","na",500,"na","na","13","na","na","na","na","na","na","na","1 2 3 4 5 6 7 8 9","na","na",50,130,588336,3,1629,0,NA
"AAPQGRFDBCHI","test",14,4,"ratings4","na","na","Your general feelings about this member are:<br><br>Very negatives 1 - 2 - 3 - 4 - 5 - 6 - 7 - 8 - 9 Very positives","na",".jpg","na","M6","na","na",500,"na","na","13","na","na","na","na","na","na","na","1 2 3 4 5 6 7 8 9","na","na",51,143,590463,3,1620,0,NA
"AAPQGRFDBCHI","test",10,4,"ratings4","na","na","Your general feelings about this member are:<br><br>Very negatives 1 - 2 - 3 - 4 - 5 - 6 - 7 - 8 - 9 Very positives","na",".jpg","na","O2","na","na",500,"na","na","13","na","na","na","na","na","na","na","1 2 3 4 5 6 7 8 9","na","na",52,155,592184,4,1210,0,NA
"AAPQGRFDBCHI","test",8,4,"ratings4","na","na","Your general feelings about this member are:<br><br>Very negatives 1 - 2 - 3 - 4 - 5 - 6 - 7 - 8 - 9 Very positives","na",".jpg","na","P8","na","na",500,"na","na","13","na","na","na","na","na","na","na","1 2 3 4 5 6 7 8 9","na","na",53,153,594458,5,1766,0,NA
"AAPQGRFDBCHI","test",8,4,"ratings4","na","na","Your general feelings about this member are:<br><br>Very negatives 1 - 2 - 3 - 4 - 5 - 6 - 7 - 8 - 9 Very positives","na",".jpg","na","B8","na","na",500,"na","na","13","na","na","na","na","na","na","na","1 2 3 4 5 6 7 8 9","na","na",54,137,596819,2,1853,0,NA
"AAPQGRFDBCHI","test",12,4,"ratings4","na","na","Your general feelings about this member are:<br><br>Very negatives 1 - 2 - 3 - 4 - 5 - 6 - 7 - 8 - 9 Very positives","na",".jpg","na","M4","na","na",500,"na","na","13","na","na","na","na","na","na","na","1 2 3 4 5 6 7 8 9","na","na",55,141,598371,2,1047,0,NA
"AAPQGRFDBCHI","test",15,4,"ratings4","na","na","Your general feelings about this member are:<br><br>Very negatives 1 - 2 - 3 - 4 - 5 - 6 - 7 - 8 - 9 Very positives","na",".jpg","na","O7","na","na",500,"na","na","13","na","na","na","na","na","na","na","1 2 3 4 5 6 7 8 9","na","na",56,160,601757,4,2875,0,NA
"AAPQGRFDBCHI","test",2,4,"ratings4","na","na","Your general feelings about this member are:<br><br>Very negatives 1 - 2 - 3 - 4 - 5 - 6 - 7 - 8 - 9 Very positives","na",".jpg","na","P2","na","na",500,"na","na","13","na","na","na","na","na","na","na","1 2 3 4 5 6 7 8 9","na","na",57,147,603030,4,763,0,NA
"AAPQGRFDBCHI","test",3,4,"ratings4","na","na","Your general feelings about this member are:<br><br>Very negatives 1 - 2 - 3 - 4 - 5 - 6 - 7 - 8 - 9 Very positives","na",".jpg","na","B3","na","na",500,"na","na","13","na","na","na","na","na","na","na","1 2 3 4 5 6 7 8 9","na","na",58,132,605931,3,2395,0,NA
"AAPQGRFDBCHI","test",9,4,"ratings4","na","na","Your general feelings about this member are:<br><br>Very negatives 1 - 2 - 3 - 4 - 5 - 6 - 7 - 8 - 9 Very positives","na",".jpg","na","M1","na","na",500,"na","na","13","na","na","na","na","na","na","na","1 2 3 4 5 6 7 8 9","na","na",59,138,607528,2,1090,0,NA
"AAPQGRFDBCHI","test",14,4,"ratings4","na","na","Your general feelings about this member are:<br><br>Very negatives 1 - 2 - 3 - 4 - 5 - 6 - 7 - 8 - 9 Very positives","na",".jpg","na","O6","na","na",500,"na","na","13","na","na","na","na","na","na","na","1 2 3 4 5 6 7 8 9","na","na",60,159,610105,6,2071,0,NA
"AAPQGRFDBCHI","test",13,4,"ratings4","na","na","Your general feelings about this member are:<br><br>Very negatives 1 - 2 - 3 - 4 - 5 - 6 - 7 - 8 - 9 Very positives","na",".jpg","na","M5","na","na",500,"na","na","13","na","na","na","na","na","na","na","1 2 3 4 5 6 7 8 9","na","na",61,142,611612,2,999,0,NA
"AAPQGRFDBCHI","test",16,4,"ratings4","na","na","Your general feelings about this member are:<br><br>Very negatives 1 - 2 - 3 - 4 - 5 - 6 - 7 - 8 - 9 Very positives","na",".jpg","na","O8","na","na",500,"na","na","13","na","na","na","na","na","na","na","1 2 3 4 5 6 7 8 9","na","na",62,161,613153,4,1035,0,NA
"AAPQGRFDBCHI","test",16,4,"ratings4","na","na","Your general feelings about this member are:<br><br>Very negatives 1 - 2 - 3 - 4 - 5 - 6 - 7 - 8 - 9 Very positives","na",".jpg","na","M8","na","na",500,"na","na","13","na","na","na","na","na","na","na","1 2 3 4 5 6 7 8 9","na","na",63,145,614357,5,696,0,NA
"AAPQGRFDBCHI","test",5,4,"ratings4","na","na","Your general feelings about this member are:<br><br>Very negatives 1 - 2 - 3 - 4 - 5 - 6 - 7 - 8 - 9 Very positives","na",".jpg","na","B5","na","na",500,"na","na","13","na","na","na","na","na","na","na","1 2 3 4 5 6 7 8 9","na","na",64,134,615718,2,851,0,NA
"AAPQGRFDBCHI","test",3,4,"ratings4","na","na","Your general feelings about this member are:<br><br>Very negatives 1 - 2 - 3 - 4 - 5 - 6 - 7 - 8 - 9 Very positives","na",".jpg","na","P3","na","na",500,"na","na","13","na","na","na","na","na","na","na","1 2 3 4 5 6 7 8 9","na","na",65,148,618060,5,1834,0,NA
"AAPQGRFDBCHI","test",14,4,"memory4","na","na","This member was presented with a member of Family C or D:<br><br>","na",".jpg","na","M6","na","na",500,"na","na","10","na","na","na","Family C","I don't know","Family D","na","1 2 3 4 5 6 7 8 9","na","na",66,223,630871,3,8489,0,NA
"AAPQGRFDBCHI","test",6,4,"memory4","na","na","This member was presented with a member of Family C or D:<br><br>","na",".jpg","na","B6","na","na",500,"na","na","10","na","na","na","Family C","I don't know","Family D","na","1 2 3 4 5 6 7 8 9","na","na",67,215,636417,1,5036,0,NA
"AAPQGRFDBCHI","test",3,4,"memory4","na","na","This member was presented with a member of Family C or D:<br><br>","na",".jpg","na","B3","na","na",500,"na","na","10","na","na","na","Family C","I don't know","Family D","na","1 2 3 4 5 6 7 8 9","na","na",68,212,638190,1,1265,0,NA
"AAPQGRFDBCHI","test",16,4,"memory4","na","na","This member was presented with a member of Family C or D:<br><br>","na",".jpg","na","M8","na","na",500,"na","na","10","na","na","na","Family C","I don't know","Family D","na","1 2 3 4 5 6 7 8 9","na","na",69,225,639924,3,1227,0,NA
"AAPQGRFDBCHI","test",1,4,"memory4","na","na","This member was presented with a member of Family C or D:<br><br>","na",".jpg","na","B1","na","na",500,"na","na","10","na","na","na","Family C","I don't know","Family D","na","1 2 3 4 5 6 7 8 9","na","na",70,210,641726,1,1296,0,NA
"AAPQGRFDBCHI","test",8,4,"memory4","na","na","This member was presented with a member of Family C or D:<br><br>","na",".jpg","na","B8","na","na",500,"na","na","10","na","na","na","Family C","I don't know","Family D","na","1 2 3 4 5 6 7 8 9","na","na",71,217,643467,1,1236,0,NA
"AAPQGRFDBCHI","test",9,4,"memory4","na","na","This member was presented with a member of Family C or D:<br><br>","na",".jpg","na","M1","na","na",500,"na","na","10","na","na","na","Family C","I don't know","Family D","na","1 2 3 4 5 6 7 8 9","na","na",72,218,645221,3,1245,0,NA
"AAPQGRFDBCHI","test",4,4,"memory4","na","na","This member was presented with a member of Family C or D:<br><br>","na",".jpg","na","B4","na","na",500,"na","na","10","na","na","na","Family C","I don't know","Family D","na","1 2 3 4 5 6 7 8 9","na","na",73,213,646918,1,1188,0,NA
"AAPQGRFDBCHI","test",7,4,"memory4","na","na","This member was presented with a member of Family C or D:<br><br>","na",".jpg","na","B7","na","na",500,"na","na","10","na","na","na","Family C","I don't know","Family D","na","1 2 3 4 5 6 7 8 9","na","na",74,216,648237,1,810,0,NA
"AAPQGRFDBCHI","test",2,4,"memory4","na","na","This member was presented with a member of Family C or D:<br><br>","na",".jpg","na","B2","na","na",500,"na","na","10","na","na","na","Family C","I don't know","Family D","na","1 2 3 4 5 6 7 8 9","na","na",75,211,649879,1,1133,0,NA
"AAPQGRFDBCHI","test",15,4,"memory4","na","na","This member was presented with a member of Family C or D:<br><br>","na",".jpg","na","M7","na","na",500,"na","na","10","na","na","na","Family C","I don't know","Family D","na","1 2 3 4 5 6 7 8 9","na","na",76,224,651554,3,1170,0,NA
"AAPQGRFDBCHI","test",10,4,"memory4","na","na","This member was presented with a member of Family C or D:<br><br>","na",".jpg","na","M2","na","na",500,"na","na","10","na","na","na","Family C","I don't know","Family D","na","1 2 3 4 5 6 7 8 9","na","na",77,219,652767,3,708,0,NA
"AAPQGRFDBCHI","test",13,4,"memory4","na","na","This member was presented with a member of Family C or D:<br><br>","na",".jpg","na","M5","na","na",500,"na","na","10","na","na","na","Family C","I don't know","Family D","na","1 2 3 4 5 6 7 8 9","na","na",78,222,653871,3,594,0,NA
"AAPQGRFDBCHI","test",5,4,"memory4","na","na","This member was presented with a member of Family C or D:<br><br>","na",".jpg","na","B5","na","na",500,"na","na","10","na","na","na","Family C","I don't know","Family D","na","1 2 3 4 5 6 7 8 9","na","na",79,214,655513,1,1131,0,NA
"AAPQGRFDBCHI","test",11,4,"memory4","na","na","This member was presented with a member of Family C or D:<br><br>","na",".jpg","na","M3","na","na",500,"na","na","10","na","na","na","Family C","I don't know","Family D","na","1 2 3 4 5 6 7 8 9","na","na",80,220,657100,3,1076,0,NA
"AAPQGRFDBCHI","test",12,4,"memory4","na","na","This member was presented with a member of Family C or D:<br><br>","na",".jpg","na","M4","na","na",500,"na","na","10","na","na","na","Family C","I don't know","Family D","na","1 2 3 4 5 6 7 8 9","na","na",81,221,658306,3,700,0,NA
"AAPQGRFDBCHI","test",9,0,"RWA","na","na","Our forefathers ought to be honored more for the way they have built our society at the same time we ought to put an end to those forces destroying it.<br><br>Very negative 1 - 2 - 3 - 4 - 5 - 6 - 7 Very positive","na","word","na","na","na","na",500,"na","na","14","na","na","na","na","na","na","na","9 2 3 4 5 6 7","na","na",82,234,681418,4,16427,0,NA
"AAPQGRFDBCHI","test",7,0,"RWA","na","na","It would be best if newspapers were censored so that people would not be able to get hold of destructive and disgusting material.<br><br>Very negative 1 - 2 - 3 - 4 - 5 - 6 - 7 Very positive","na","word","na","na","na","na",500,"na","na","14","na","na","na","na","na","na","na","7 2 3 4 5 6 7","na","na",83,232,695625,2,13696,0,NA
"AAPQGRFDBCHI","test",8,0,"RWA","na","na","Many good people challenge the state criticize the church and ignore the normal way of living.<br><br>Very negative 1 - 2 - 3 - 4 - 5 - 6 - 7 Very positive","na","word","na","na","na","na",500,"na","na","14","na","na","na","na","na","na","na","8 2 3 4 5 6 7","na","na",84,233,704601,2,8472,0,NA
"AAPQGRFDBCHI","test",6,0,"RWA","na","na","The society needs to show openness towards people thinking differently rather than a strong leader the world is not particularly evil or dangerous.<br><br>Very negative 1 - 2 - 3 - 4 - 5 - 6 - 7 Very positive","na","word","na","na","na","na",500,"na","na","14","na","na","na","na","na","na","na","6 2 3 4 5 6 7","na","na",85,231,726946,7,21839,0,NA
"AAPQGRFDBCHI","test",4,0,"RWA","na","na","Our society would be better off if we showed tolerance and understanding for untraditional values and opinions.<br><br>Very negative 1 - 2 - 3 - 4 - 5 - 6 - 7 Very positive","na","word","na","na","na","na",500,"na","na","14","na","na","na","na","na","na","na","4 2 3 4 5 6 7","na","na",86,229,733367,7,5912,0,NA
"AAPQGRFDBCHI","test",15,0,"RWA","na","na","If the society so wants it is the duty of every true citizen to help eliminate the evil that poisons our country from within.<br><br>Very negative 1 - 2 - 3 - 4 - 5 - 6 - 7 Very positive","na","word","na","na","na","na",500,"na","na","14","na","na","na","na","na","na","na","15 2 3 4 5 6 7","na","na",87,240,740434,3,6560,0,NA
"AAPQGRFDBCHI","test",1,0,"RWA","na","na","Our country needs a powerful leader in order to destroy the radical and immoral currents prevailing in society today.<br><br>Very negative 1 - 2 - 3 - 4 - 5 - 6 - 7 Very positive","na","word","na","na","na","na",500,"na","na","14","na","na","na","na","na","na","na","1 2 3 4 5 6 7","na","na",88,226,748385,3,7446,0,NA
"AAPQGRFDBCHI","test",12,0,"RWA","na","na","It is better to accept bad literature than to censor it.<br><br>Very negative 1 - 2 - 3 - 4 - 5 - 6 - 7 Very positive","na","word","na","na","na","na",500,"na","na","14","na","na","na","na","na","na","na","12 2 3 4 5 6 7","na","na",89,237,754417,6,5526,0,NA
"AAPQGRFDBCHI","test",3,0,"RWA","na","na","The old-fashioned ways and old-fashioned values still show the best way to live.<br><br>Very negative 1 - 2 - 3 - 4 - 5 - 6 - 7 Very positive","na","word","na","na","na","na",500,"na","na","14","na","na","na","na","na","na","na","3 2 3 4 5 6 7","na","na",90,228,758657,2,3732,0,NA
"AAPQGRFDBCHI","test",14,0,"RWA","na","na","The situation in the society of today would be improved if troublemakers were treated with reason and humanity.<br><br>Very negative 1 - 2 - 3 - 4 - 5 - 6 - 7 Very positive","na","word","na","na","na","na",500,"na","na","14","na","na","na","na","na","na","na","14 2 3 4 5 6 7","na","na",91,239,763753,7,4588,0,NA
"AAPQGRFDBCHI","test",13,0,"RWA","na","na","Facts show that we have to be harder against crime and sexual immorality in order to uphold law and order.<br><br>Very negative 1 - 2 - 3 - 4 - 5 - 6 - 7 Very positive","na","word","na","na","na","na",500,"na","na","14","na","na","na","na","na","na","na","13 2 3 4 5 6 7","na","na",92,238,772046,4,7785,0,NA
"AAPQGRFDBCHI","test",2,0,"RWA","na","na","Our country needs free thinkers who will have the courage to stand up against traditional ways even if this upsets many people.<br><br>Very negative 1 - 2 - 3 - 4 - 5 - 6 - 7 Very positive","na","word","na","na","na","na",500,"na","na","14","na","na","na","na","na","na","na","2 2 3 4 5 6 7","na","na",93,227,779955,7,7404,0,NA
"AAPQGRFDBCHI","test",5,0,"RWA","na","na","Gods laws about abortion pornography and marriage must be strictly followed before it is too late violations must be punished.<br><br>Very negative 1 - 2 - 3 - 4 - 5 - 6 - 7 Very positive","na","word","na","na","na","na",500,"na","na","14","na","na","na","na","na","na","na","5 2 3 4 5 6 7","na","na",94,230,785622,2,5161,0,NA
"AAPQGRFDBCHI","test",11,0,"RWA","na","na","There are many radical immoral people trying to ruin things the society ought to stop them.<br><br>Very negative 1 - 2 - 3 - 4 - 5 - 6 - 7 Very positive","na","word","na","na","na","na",500,"na","na","14","na","na","na","na","na","na","na","11 2 3 4 5 6 7","na","na",95,236,791461,2,5327,0,NA
"AAPQGRFDBCHI","test",10,0,"RWA","na","na","People ought to put less attention to the Bible and religion instead they ought to develop their own moral standards.<br><br>Very negative 1 - 2 - 3 - 4 - 5 - 6 - 7 Very positive","na","word","na","na","na","na",500,"na","na","14","na","na","na","na","na","na","na","10 2 3 4 5 6 7","na","na",96,235,797188,7,5216,0,NA
"AAPQGRFDBCHI","form",11,0,"SECS","na","na","na","The family unit","word","1","na","na","na",500,"na","na","15","na","na","na","na","na","na","na","na","slider","0_100_5",97,253,811185,90,4521,0,NA
"AAPQGRFDBCHI","form",4,0,"SECS","na","na","na","Religion","word","1","na","na","na",500,"na","na","15","na","na","na","na","na","na","na","na","slider","0_100_5",NA,NA,814446,0,2749,0,NA
"AAPQGRFDBCHI","form",6,0,"SECS","na","na","na","Gun ownership","word","1","na","na","na",500,"na","na","15","na","na","na","na","na","na","na","na","slider","0_100_5",NA,NA,817719,0,2762,0,NA
"AAPQGRFDBCHI","form",10,0,"SECS","na","na","na","Business","word","1","na","na","na",500,"na","na","15","na","na","na","na","na","na","na","na","slider","0_100_5",NA,NA,822050,70,3815,0,NA
"AAPQGRFDBCHI","form",5,0,"SECS","na","na","na","Welfare benefits","word","1","na","na","na",500,"na","na","15","na","na","na","na","na","na","na","na","slider","0_100_5",NA,NA,826247,80,3684,0,NA
"AAPQGRFDBCHI","form",8,0,"SECS","na","na","na","Traditional values","word","1","na","na","na",500,"na","na","15","na","na","na","na","na","na","na","na","slider","0_100_5",NA,NA,831097,20,4339,0,NA
"AAPQGRFDBCHI","form",12,0,"SECS","na","na","na","Patriotism","word","1","na","na","na",500,"na","na","15","na","na","na","na","na","na","na","na","slider","0_100_5",NA,NA,835269,20,3662,0,NA
"AAPQGRFDBCHI","form",3,0,"SECS","na","na","na","Military and national security","word","1","na","na","na",500,"na","na","15","na","na","na","na","na","na","na","na","slider","0_100_5",NA,NA,839928,30,4148,0,NA
"AAPQGRFDBCHI","form",9,0,"SECS","na","na","na","Fiscal responsibility","word","1","na","na","na",500,"na","na","15","na","na","na","na","na","na","na","na","slider","0_100_5",NA,NA,849736,50,9298,0,NA
"AAPQGRFDBCHI","form",1,0,"SECS","na","na","na","Abortion","word","1","na","na","na",500,"na","na","15","na","na","na","na","na","na","na","na","slider","0_100_5",NA,NA,853606,100,3358,0,NA
"AAPQGRFDBCHI","form",7,0,"SECS","na","na","na","Traditional marriage","word","1","na","na","na",500,"na","na","15","na","na","na","na","na","na","na","na","slider","0_100_5",NA,NA,858930,50,4809,0,NA
"AAPQGRFDBCHI","form",2,0,"SECS","na","na","na","Limited government","word","1","na","na","na",500,"na","na","15","na","na","na","na","na","na","na","na","slider","0_100_5",NA,NA,863438,50,3997,0,NA
"AAPQGRFDBCHI","test",18,0,"seriousness","Almost Done !","na","It would be very helpful if you could tell us at this point whether you have taken part seriously<br><br>so that we can use your answers for our scientific analysis or whether you were just clicking through to take a look at the survey?","na","word","na","na","na","na",500,"na","na","na","na","na","na","I have taken part seriously","I have just clicked through Please throw my data away","na","na","na","na","na",NA,NA,871036,1,7093,0,NA
"ABXONMSGALLE","test",1,0,"apprentissage","na","na","Watch carefully these four families","na",".jpg","na","learn04","na","na",500,"na","na","na","na","na","na","NEXT","na","na","na","na","na","na",1,1,102483,1,18644,0,NA
"ABXONMSGALLE","test",13,0,"apprentissage","na","na","To which family does this character belong?","na",".jpg","na","P4","na","4",500,"na","na","1","na","Your answer is wrong","Your answer is correct","FAMILY A","FAMILY B","FAMILY C","FAMILY D","na","na","na",2,29,109212,4,6215,1,NA
"ABXONMSGALLE","test",14,0,"apprentissage","na","na","To which family does this character belong?","na",".jpg","na","M5","na","2",500,"na","na","1","na","Your answer is wrong","Your answer is correct","FAMILY A","FAMILY B","FAMILY C","FAMILY D","na","na","na",3,14,113976,2,2437,1,NA
"ABXONMSGALLE","test",18,0,"apprentissage","na","na","To which family does this character belong?","na",".jpg","na","P8","na","4",500,"na","na","1","na","Your answer is wrong","Your answer is correct","FAMILY A","FAMILY B","FAMILY C","FAMILY D","na","na","na",4,33,120284,4,4232,1,NA
"ABXONMSGALLE","test",6,0,"apprentissage","na","na","To which family does this character belong?","na",".jpg","na","B5","na","1",500,"na","na","1","na","Your answer is wrong","Your answer is correct","FAMILY A","FAMILY B","FAMILY C","FAMILY D","na","na","na",5,6,124970,1,2408,1,NA
"ABXONMSGALLE","test",2,0,"apprentissage","na","na","To which family does this character belong?","na",".jpg","na","O1","na","3",500,"na","na","1","na","Your answer is wrong","Your answer is correct","FAMILY A","FAMILY B","FAMILY C","FAMILY D","na","na","na",6,18,129109,3,2388,1,NA
"ABXONMSGALLE","test",7,0,"apprentissage","na","na","To which family does this character belong?","na",".jpg","na","O6","na","3",500,"na","na","1","na","Your answer is wrong","Your answer is correct","FAMILY A","FAMILY B","FAMILY C","FAMILY D","na","na","na",7,23,133073,3,1918,1,NA
"ABXONMSGALLE","test",16,0,"apprentissage","na","na","To which family does this character belong?","na",".jpg","na","P6","na","4",500,"na","na","1","na","Your answer is wrong","Your answer is correct","FAMILY A","FAMILY B","FAMILY C","FAMILY D","na","na","na",8,31,137507,4,2111,1,NA
"ABXONMSGALLE","test",12,0,"apprentissage","na","na","To which family does this character belong?","na",".jpg","na","P3","na","4",500,"na","na","1","na","Your answer is wrong","Your answer is correct","FAMILY A","FAMILY B","FAMILY C","FAMILY D","na","na","na",9,28,141320,4,2058,1,NA
"ABXONMSGALLE","test",17,0,"apprentissage","na","na","To which family does this character belong?","na",".jpg","na","P7","na","4",500,"na","na","1","na","Your answer is wrong","Your answer is correct","FAMILY A","FAMILY B","FAMILY C","FAMILY D","na","na","na",10,32,145323,4,2100,1,NA
"ABXONMSGALLE","test",3,0,"apprentissage","na","na","To which family does this character belong?","na",".jpg","na","B2","na","1",500,"na","na","1","na","Your answer is wrong","Your answer is correct","FAMILY A","FAMILY B","FAMILY C","FAMILY D","na","na","na",11,3,149871,1,2300,1,NA
"ABXONMSGALLE","test",8,0,"apprentissage","na","na","To which family does this character belong?","na",".jpg","na","B7","na","1",500,"na","na","1","na","Your answer is wrong","Your answer is correct","FAMILY A","FAMILY B","FAMILY C","FAMILY D","na","na","na",12,8,153859,1,2183,1,NA
"ABXONMSGALLE","test",14,0,"apprentissage","na","na","To which family does this character belong?","na",".jpg","na","P5","na","4",500,"na","na","1","na","Your answer is wrong","Your answer is correct","FAMILY A","FAMILY B","FAMILY C","FAMILY D","na","na","na",13,30,157571,4,1808,1,NA
"ABXONMSGALLE","test",10,0,"apprentissage","na","na","To which family does this character belong?","na",".jpg","na","P1","na","4",500,"na","na","1","na","Your answer is wrong","Your answer is correct","FAMILY A","FAMILY B","FAMILY C","FAMILY D","na","na","na",14,26,161870,4,2161,1,NA
"ABXONMSGALLE","test",11,0,"apprentissage","na","na","To which family does this character belong?","na",".jpg","na","M2","na","2",500,"na","na","1","na","Your answer is wrong","Your answer is correct","FAMILY A","FAMILY B","FAMILY C","FAMILY D","na","na","na",15,11,165597,2,1808,1,NA
"ABXONMSGALLE","test",10,0,"apprentissage","na","na","To which family does this character belong?","na",".jpg","na","M1","na","2",500,"na","na","1","na","Your answer is wrong","Your answer is correct","FAMILY A","FAMILY B","FAMILY C","FAMILY D","na","na","na",16,10,169452,2,2168,1,NA
"ABXONMSGALLE","test",11,0,"apprentissage","na","na","To which family does this character belong?","na",".jpg","na","P2","na","4",500,"na","na","1","na","Your answer is wrong","Your answer is correct","FAMILY A","FAMILY B","FAMILY C","FAMILY D","na","na","na",17,27,174136,4,2577,1,NA
"ABXONMSGALLE","test",2,0,"apprentissage","na","na","To which family does this character belong?","na",".jpg","na","B1","na","1",500,"na","na","1","na","Your answer is wrong","Your answer is correct","FAMILY A","FAMILY B","FAMILY C","FAMILY D","na","na","na",18,2,177971,1,1944,1,NA
"ABXONMSGALLE","test",4,0,"apprentissage","na","na","To which family does this character belong?","na",".jpg","na","B3","na","1",500,"na","na","1","na","Your answer is wrong","Your answer is correct","FAMILY A","FAMILY B","FAMILY C","FAMILY D","na","na","na",19,4,181699,1,2093,1,NA
"ABXONMSGALLE","test",5,0,"apprentissage","na","na","To which family does this character belong?","na",".jpg","na","O4","na","3",500,"na","na","1","na","Your answer is wrong","Your answer is correct","FAMILY A","FAMILY B","FAMILY C","FAMILY D","na","na","na",20,21,185539,3,1893,1,NA
"ABXONMSGALLE","test",4,0,"apprentissage","na","na","To which family does this character belong?","na",".jpg","na","O3","na","3",500,"na","na","1","na","Your answer is wrong","Your answer is correct","FAMILY A","FAMILY B","FAMILY C","FAMILY D","na","na","na",21,20,189101,3,1638,1,NA
"ABXONMSGALLE","test",18,0,"apprentissage","na","na","To which family does this character belong?","na",".jpg","na","M8","na","2",500,"na","na","1","na","Your answer is wrong","Your answer is correct","FAMILY A","FAMILY B","FAMILY C","FAMILY D","na","na","na",22,17,193501,2,2741,1,NA
"ABXONMSGALLE","test",5,0,"apprentissage","na","na","To which family does this character belong?","na",".jpg","na","B4","na","1",500,"na","na","1","na","Your answer is wrong","Your answer is correct","FAMILY A","FAMILY B","FAMILY C","FAMILY D","na","na","na",23,5,197301,1,1779,1,NA
"ABXONMSGALLE","test",8,0,"apprentissage","na","na","To which family does this character belong?","na",".jpg","na","O7","na","3",500,"na","na","1","na","Your answer is wrong","Your answer is correct","FAMILY A","FAMILY B","FAMILY C","FAMILY D","na","na","na",24,24,202059,3,2944,1,NA
"ABXONMSGALLE","test",17,0,"apprentissage","na","na","To which family does this character belong?","na",".jpg","na","M7","na","2",500,"na","na","1","na","Your answer is wrong","Your answer is correct","FAMILY A","FAMILY B","FAMILY C","FAMILY D","na","na","na",25,16,205894,2,2132,1,NA
"ABXONMSGALLE","test",9,0,"apprentissage","na","na","To which family does this character belong?","na",".jpg","na","B8","na","1",500,"na","na","1","na","Your answer is wrong","Your answer is correct","FAMILY A","FAMILY B","FAMILY C","FAMILY D","na","na","na",26,9,209882,1,2218,1,NA
"ABXONMSGALLE","test",13,0,"apprentissage","na","na","To which family does this character belong?","na",".jpg","na","M4","na","2",500,"na","na","1","na","Your answer is wrong","Your answer is correct","FAMILY A","FAMILY B","FAMILY C","FAMILY D","na","na","na",27,13,213884,2,2139,1,NA
"ABXONMSGALLE","test",7,0,"apprentissage","na","na","To which family does this character belong?","na",".jpg","na","B6","na","1",500,"na","na","1","na","Your answer is wrong","Your answer is correct","FAMILY A","FAMILY B","FAMILY C","FAMILY D","na","na","na",28,7,217438,1,1820,1,NA
"ABXONMSGALLE","test",16,0,"apprentissage","na","na","To which family does this character belong?","na",".jpg","na","M6","na","2",500,"na","na","1","na","Your answer is wrong","Your answer is correct","FAMILY A","FAMILY B","FAMILY C","FAMILY D","na","na","na",29,15,221027,2,1843,1,NA
"ABXONMSGALLE","test",6,0,"apprentissage","na","na","To which family does this character belong?","na",".jpg","na","O5","na","3",500,"na","na","1","na","Your answer is wrong","Your answer is correct","FAMILY A","FAMILY B","FAMILY C","FAMILY D","na","na","na",30,22,226623,3,3989,1,NA
"ABXONMSGALLE","test",9,0,"apprentissage","na","na","To which family does this character belong?","na",".jpg","na","O8","na","3",500,"na","na","1","na","Your answer is wrong","Your answer is correct","FAMILY A","FAMILY B","FAMILY C","FAMILY D","na","na","na",31,25,230489,3,1814,1,NA
"ABXONMSGALLE","test",12,0,"apprentissage","na","na","To which family does this character belong?","na",".jpg","na","M3","na","2",500,"na","na","1","na","Your answer is wrong","Your answer is correct","FAMILY A","FAMILY B","FAMILY C","FAMILY D","na","na","na",32,12,234017,2,1916,1,NA
"ABXONMSGALLE","test",3,0,"apprentissage","na","na","To which family does this character belong?","na",".jpg","na","O2","na","3",500,"na","na","1","na","Your answer is wrong","Your answer is correct","FAMILY A","FAMILY B","FAMILY C","FAMILY D","na","na","na",33,19,237925,3,1808,1,NA
"ABXONMSGALLE","test",10,4,"ratings4","na","na","Your general feelings about this member are:<br><br>Very negatives 1 - 2 - 3 - 4 - 5 - 6 - 7 - 8 - 9 Very positives","na",".jpg","na","O2","na","na",500,"na","na","13","na","na","na","na","na","na","na","1 2 3 4 5 6 7 8 9","na","na",34,155,556570,1,1344,0,NA
"ABXONMSGALLE","test",12,4,"ratings4","na","na","Your general feelings about this member are:<br><br>Very negatives 1 - 2 - 3 - 4 - 5 - 6 - 7 - 8 - 9 Very positives","na",".jpg","na","O4","na","na",500,"na","na","13","na","na","na","na","na","na","na","1 2 3 4 5 6 7 8 9","na","na",35,157,581685,4,24602,0,NA
"ABXONMSGALLE","test",10,4,"ratings4","na","na","Your general feelings about this member are:<br><br>Very negatives 1 - 2 - 3 - 4 - 5 - 6 - 7 - 8 - 9 Very positives","na",".jpg","na","M2","na","na",500,"na","na","13","na","na","na","na","na","na","na","1 2 3 4 5 6 7 8 9","na","na",36,139,587720,8,5514,0,NA
"ABXONMSGALLE","test",4,4,"ratings4","na","na","Your general feelings about this member are:<br><br>Very negatives 1 - 2 - 3 - 4 - 5 - 6 - 7 - 8 - 9 Very positives","na",".jpg","na","P4","na","na",500,"na","na","13","na","na","na","na","na","na","na","1 2 3 4 5 6 7 8 9","na","na",37,149,595819,6,7585,0,NA
"ABXONMSGALLE","test",9,4,"ratings4","na","na","Your general feelings about this member are:<br><br>Very negatives 1 - 2 - 3 - 4 - 5 - 6 - 7 - 8 - 9 Very positives","na",".jpg","na","O1","na","na",500,"na","na","13","na","na","na","na","na","na","na","1 2 3 4 5 6 7 8 9","na","na",38,154,609077,4,12742,0,NA
"ABXONMSGALLE","test",3,4,"ratings4","na","na","Your general feelings about this member are:<br><br>Very negatives 1 - 2 - 3 - 4 - 5 - 6 - 7 - 8 - 9 Very positives","na",".jpg","na","P3","na","na",500,"na","na","13","na","na","na","na","na","na","na","1 2 3 4 5 6 7 8 9","na","na",39,148,613048,8,3450,0,NA
"ABXONMSGALLE","test",4,4,"ratings4","na","na","Your general feelings about this member are:<br><br>Very negatives 1 - 2 - 3 - 4 - 5 - 6 - 7 - 8 - 9 Very positives","na",".jpg","na","B4","na","na",500,"na","na","13","na","na","na","na","na","na","na","1 2 3 4 5 6 7 8 9","na","na",40,133,617754,1,4182,0,NA
"ABXONMSGALLE","test",8,4,"ratings4","na","na","Your general feelings about this member are:<br><br>Very negatives 1 - 2 - 3 - 4 - 5 - 6 - 7 - 8 - 9 Very positives","na",".jpg","na","P8","na","na",500,"na","na","13","na","na","na","na","na","na","na","1 2 3 4 5 6 7 8 9","na","na",41,153,625376,7,7106,0,NA
"ABXONMSGALLE","test",8,4,"ratings4","na","na","Your general feelings about this member are:<br><br>Very negatives 1 - 2 - 3 - 4 - 5 - 6 - 7 - 8 - 9 Very positives","na",".jpg","na","B8","na","na",500,"na","na","13","na","na","na","na","na","na","na","1 2 3 4 5 6 7 8 9","na","na",42,137,629531,1,3642,0,NA
"ABXONMSGALLE","test",5,4,"ratings4","na","na","Your general feelings about this member are:<br><br>Very negatives 1 - 2 - 3 - 4 - 5 - 6 - 7 - 8 - 9 Very positives","na",".jpg","na","P5","na","na",500,"na","na","13","na","na","na","na","na","na","na","1 2 3 4 5 6 7 8 9","na","na",43,150,633714,7,3669,0,NA
"ABXONMSGALLE","test",11,4,"ratings4","na","na","Your general feelings about this member are:<br><br>Very negatives 1 - 2 - 3 - 4 - 5 - 6 - 7 - 8 - 9 Very positives","na",".jpg","na","O3","na","na",500,"na","na","13","na","na","na","na","na","na","na","1 2 3 4 5 6 7 8 9","na","na",44,156,641052,4,6822,0,NA
"ABXONMSGALLE","test",13,4,"ratings4","na","na","Your general feelings about this member are:<br><br>Very negatives 1 - 2 - 3 - 4 - 5 - 6 - 7 - 8 - 9 Very positives","na",".jpg","na","M5","na","na",500,"na","na","13","na","na","na","na","na","na","na","1 2 3 4 5 6 7 8 9","na","na",45,142,646734,9,5165,0,NA
"ABXONMSGALLE","test",15,4,"ratings4","na","na","Your general feelings about this member are:<br><br>Very negatives 1 - 2 - 3 - 4 - 5 - 6 - 7 - 8 - 9 Very positives","na",".jpg","na","M7","na","na",500,"na","na","13","na","na","na","na","na","na","na","1 2 3 4 5 6 7 8 9","na","na",46,144,648694,9,1431,0,NA
"ABXONMSGALLE","test",16,4,"ratings4","na","na","Your general feelings about this member are:<br><br>Very negatives 1 - 2 - 3 - 4 - 5 - 6 - 7 - 8 - 9 Very positives","na",".jpg","na","M8","na","na",500,"na","na","13","na","na","na","na","na","na","na","1 2 3 4 5 6 7 8 9","na","na",47,145,650869,9,1647,0,NA
"ABXONMSGALLE","test",15,4,"ratings4","na","na","Your general feelings about this member are:<br><br>Very negatives 1 - 2 - 3 - 4 - 5 - 6 - 7 - 8 - 9 Very positives","na",".jpg","na","O7","na","na",500,"na","na","13","na","na","na","na","na","na","na","1 2 3 4 5 6 7 8 9","na","na",48,160,656957,7,5575,0,NA
"ABXONMSGALLE","test",16,4,"ratings4","na","na","Your general feelings about this member are:<br><br>Very negatives 1 - 2 - 3 - 4 - 5 - 6 - 7 - 8 - 9 Very positives","na",".jpg","na","O8","na","na",500,"na","na","13","na","na","na","na","na","na","na","1 2 3 4 5 6 7 8 9","na","na",49,161,658949,7,1477,0,NA
"ABXONMSGALLE","test",13,4,"ratings4","na","na","Your general feelings about this member are:<br><br>Very negatives 1 - 2 - 3 - 4 - 5 - 6 - 7 - 8 - 9 Very positives","na",".jpg","na","O5","na","na",500,"na","na","13","na","na","na","na","na","na","na","1 2 3 4 5 6 7 8 9","na","na",50,158,660758,7,1283,0,NA
"ABXONMSGALLE","test",9,4,"ratings4","na","na","Your general feelings about this member are:<br><br>Very negatives 1 - 2 - 3 - 4 - 5 - 6 - 7 - 8 - 9 Very positives","na",".jpg","na","M1","na","na",500,"na","na","13","na","na","na","na","na","na","na","1 2 3 4 5 6 7 8 9","na","na",51,138,662661,1,1386,0,NA
"ABXONMSGALLE","test",12,4,"ratings4","na","na","Your general feelings about this member are:<br><br>Very negatives 1 - 2 - 3 - 4 - 5 - 6 - 7 - 8 - 9 Very positives","na",".jpg","na","M4","na","na",500,"na","na","13","na","na","na","na","na","na","na","1 2 3 4 5 6 7 8 9","na","na",52,141,666343,8,3169,0,NA
"ABXONMSGALLE","test",6,4,"ratings4","na","na","Your general feelings about this member are:<br><br>Very negatives 1 - 2 - 3 - 4 - 5 - 6 - 7 - 8 - 9 Very positives","na",".jpg","na","B6","na","na",500,"na","na","13","na","na","na","na","na","na","na","1 2 3 4 5 6 7 8 9","na","na",53,135,668414,1,1546,0,NA
"ABXONMSGALLE","test",2,4,"ratings4","na","na","Your general feelings about this member are:<br><br>Very negatives 1 - 2 - 3 - 4 - 5 - 6 - 7 - 8 - 9 Very positives","na",".jpg","na","P2","na","na",500,"na","na","13","na","na","na","na","na","na","na","1 2 3 4 5 6 7 8 9","na","na",54,147,676615,4,7688,0,NA
"ABXONMSGALLE","test",3,4,"ratings4","na","na","Your general feelings about this member are:<br><br>Very negatives 1 - 2 - 3 - 4 - 5 - 6 - 7 - 8 - 9 Very positives","na",".jpg","na","B3","na","na",500,"na","na","13","na","na","na","na","na","na","na","1 2 3 4 5 6 7 8 9","na","na",55,132,679205,1,2076,0,NA
"ABXONMSGALLE","test",7,4,"ratings4","na","na","Your general feelings about this member are:<br><br>Very negatives 1 - 2 - 3 - 4 - 5 - 6 - 7 - 8 - 9 Very positives","na",".jpg","na","P7","na","na",500,"na","na","13","na","na","na","na","na","na","na","1 2 3 4 5 6 7 8 9","na","na",56,152,690390,8,10669,0,NA
"ABXONMSGALLE","test",11,4,"ratings4","na","na","Your general feelings about this member are:<br><br>Very negatives 1 - 2 - 3 - 4 - 5 - 6 - 7 - 8 - 9 Very positives","na",".jpg","na","M3","na","na",500,"na","na","13","na","na","na","na","na","na","na","1 2 3 4 5 6 7 8 9","na","na",57,140,693464,8,2553,0,NA
"ABXONMSGALLE","test",1,4,"ratings4","na","na","Your general feelings about this member are:<br><br>Very negatives 1 - 2 - 3 - 4 - 5 - 6 - 7 - 8 - 9 Very positives","na",".jpg","na","P1","na","na",500,"na","na","13","na","na","na","na","na","na","na","1 2 3 4 5 6 7 8 9","na","na",58,146,700790,7,6814,0,NA
"ABXONMSGALLE","test",14,4,"ratings4","na","na","Your general feelings about this member are:<br><br>Very negatives 1 - 2 - 3 - 4 - 5 - 6 - 7 - 8 - 9 Very positives","na",".jpg","na","M6","na","na",500,"na","na","13","na","na","na","na","na","na","na","1 2 3 4 5 6 7 8 9","na","na",59,143,704135,9,2825,0,NA
"ABXONMSGALLE","test",1,4,"ratings4","na","na","Your general feelings about this member are:<br><br>Very negatives 1 - 2 - 3 - 4 - 5 - 6 - 7 - 8 - 9 Very positives","na",".jpg","na","B1","na","na",500,"na","na","13","na","na","na","na","na","na","na","1 2 3 4 5 6 7 8 9","na","na",60,130,705910,1,1258,0,NA
"ABXONMSGALLE","test",7,4,"ratings4","na","na","Your general feelings about this member are:<br><br>Very negatives 1 - 2 - 3 - 4 - 5 - 6 - 7 - 8 - 9 Very positives","na",".jpg","na","B7","na","na",500,"na","na","13","na","na","na","na","na","na","na","1 2 3 4 5 6 7 8 9","na","na",61,136,707523,1,1093,0,NA
"ABXONMSGALLE","test",14,4,"ratings4","na","na","Your general feelings about this member are:<br><br>Very negatives 1 - 2 - 3 - 4 - 5 - 6 - 7 - 8 - 9 Very positives","na",".jpg","na","O6","na","na",500,"na","na","13","na","na","na","na","na","na","na","1 2 3 4 5 6 7 8 9","na","na",62,159,716071,4,8027,0,NA
"ABXONMSGALLE","test",5,4,"ratings4","na","na","Your general feelings about this member are:<br><br>Very negatives 1 - 2 - 3 - 4 - 5 - 6 - 7 - 8 - 9 Very positives","na",".jpg","na","B5","na","na",500,"na","na","13","na","na","na","na","na","na","na","1 2 3 4 5 6 7 8 9","na","na",63,134,718249,1,1657,0,NA
"ABXONMSGALLE","test",2,4,"ratings4","na","na","Your general feelings about this member are:<br><br>Very negatives 1 - 2 - 3 - 4 - 5 - 6 - 7 - 8 - 9 Very positives","na",".jpg","na","B2","na","na",500,"na","na","13","na","na","na","na","na","na","na","1 2 3 4 5 6 7 8 9","na","na",64,131,720010,1,1238,0,NA
"ABXONMSGALLE","test",6,4,"ratings4","na","na","Your general feelings about this member are:<br><br>Very negatives 1 - 2 - 3 - 4 - 5 - 6 - 7 - 8 - 9 Very positives","na",".jpg","na","P6","na","na",500,"na","na","13","na","na","na","na","na","na","na","1 2 3 4 5 6 7 8 9","na","na",65,151,724271,7,3734,0,NA
"ABXONMSGALLE","test",15,4,"memory4","na","na","This member was presented with a member of Family C or D:<br><br>","na",".jpg","na","M7","na","na",500,"na","na","10","na","na","na","Family C","I don't know","Family D","na","1 2 3 4 5 6 7 8 9","na","na",66,224,751431,3,21127,0,NA
"ABXONMSGALLE","test",5,4,"memory4","na","na","This member was presented with a member of Family C or D:<br><br>","na",".jpg","na","B5","na","na",500,"na","na","10","na","na","na","Family C","I don't know","Family D","na","1 2 3 4 5 6 7 8 9","na","na",67,214,756330,1,4383,0,NA
"ABXONMSGALLE","test",8,4,"memory4","na","na","This member was presented with a member of Family C or D:<br><br>","na",".jpg","na","B8","na","na",500,"na","na","10","na","na","na","Family C","I don't know","Family D","na","1 2 3 4 5 6 7 8 9","na","na",68,217,762569,1,5727,0,NA
"ABXONMSGALLE","test",13,4,"memory4","na","na","This member was presented with a member of Family C or D:<br><br>","na",".jpg","na","M5","na","na",500,"na","na","10","na","na","na","Family C","I don't know","Family D","na","1 2 3 4 5 6 7 8 9","na","na",69,222,767735,3,4650,0,NA
"ABXONMSGALLE","test",9,4,"memory4","na","na","This member was presented with a member of Family C or D:<br><br>","na",".jpg","na","M1","na","na",500,"na","na","10","na","na","na","Family C","I don't know","Family D","na","1 2 3 4 5 6 7 8 9","na","na",70,218,772175,3,3915,0,NA
"ABXONMSGALLE","test",10,4,"memory4","na","na","This member was presented with a member of Family C or D:<br><br>","na",".jpg","na","M2","na","na",500,"na","na","10","na","na","na","Family C","I don't know","Family D","na","1 2 3 4 5 6 7 8 9","na","na",71,219,776908,3,4216,0,NA
"ABXONMSGALLE","test",7,4,"memory4","na","na","This member was presented with a member of Family C or D:<br><br>","na",".jpg","na","B7","na","na",500,"na","na","10","na","na","na","Family C","I don't know","Family D","na","1 2 3 4 5 6 7 8 9","na","na",72,216,779895,1,2474,0,NA
"ABXONMSGALLE","test",14,4,"memory4","na","na","This member was presented with a member of Family C or D:<br><br>","na",".jpg","na","M6","na","na",500,"na","na","10","na","na","na","Family C","I don't know","Family D","na","1 2 3 4 5 6 7 8 9","na","na",73,223,783303,3,2887,0,NA
"ABXONMSGALLE","test",1,4,"memory4","na","na","This member was presented with a member of Family C or D:<br><br>","na",".jpg","na","B1","na","na",500,"na","na","10","na","na","na","Family C","I don't know","Family D","na","1 2 3 4 5 6 7 8 9","na","na",74,210,788746,1,4930,0,NA
"ABXONMSGALLE","test",2,4,"memory4","na","na","This member was presented with a member of Family C or D:<br><br>","na",".jpg","na","B2","na","na",500,"na","na","10","na","na","na","Family C","I don't know","Family D","na","1 2 3 4 5 6 7 8 9","na","na",75,211,792182,1,2925,0,NA
"ABXONMSGALLE","test",3,4,"memory4","na","na","This member was presented with a member of Family C or D:<br><br>","na",".jpg","na","B3","na","na",500,"na","na","10","na","na","na","Family C","I don't know","Family D","na","1 2 3 4 5 6 7 8 9","na","na",76,212,796006,1,3300,0,NA
"ABXONMSGALLE","test",16,4,"memory4","na","na","This member was presented with a member of Family C or D:<br><br>","na",".jpg","na","M8","na","na",500,"na","na","10","na","na","na","Family C","I don't know","Family D","na","1 2 3 4 5 6 7 8 9","na","na",77,225,799956,3,3438,0,NA
"ABXONMSGALLE","test",4,4,"memory4","na","na","This member was presented with a member of Family C or D:<br><br>","na",".jpg","na","B4","na","na",500,"na","na","10","na","na","na","Family C","I don't know","Family D","na","1 2 3 4 5 6 7 8 9","na","na",78,213,803094,1,2617,0,NA
"ABXONMSGALLE","test",6,4,"memory4","na","na","This member was presented with a member of Family C or D:<br><br>","na",".jpg","na","B6","na","na",500,"na","na","10","na","na","na","Family C","I don't know","Family D","na","1 2 3 4 5 6 7 8 9","na","na",79,215,805998,1,2389,0,NA
"ABXONMSGALLE","test",11,4,"memory4","na","na","This member was presented with a member of Family C or D:<br><br>","na",".jpg","na","M3","na","na",500,"na","na","10","na","na","na","Family C","I don't know","Family D","na","1 2 3 4 5 6 7 8 9","na","na",80,220,808627,3,2105,0,NA
"ABXONMSGALLE","test",12,4,"memory4","na","na","This member was presented with a member of Family C or D:<br><br>","na",".jpg","na","M4","na","na",500,"na","na","10","na","na","na","Family C","I don't know","Family D","na","1 2 3 4 5 6 7 8 9","na","na",81,221,811721,3,2568,0,NA
"ABXONMSGALLE","test",5,0,"RWA","na","na","Gods laws about abortion pornography and marriage must be strictly followed before it is too late violations must be punished.<br><br>Very negative 1 - 2 - 3 - 4 - 5 - 6 - 7 Very positive","na","word","na","na","na","na",500,"na","na","14","na","na","na","na","na","na","na","5 2 3 4 5 6 7","na","na",82,230,854179,2,34312,0,NA
"ABXONMSGALLE","test",8,0,"RWA","na","na","Many good people challenge the state criticize the church and ignore the normal way of living.<br><br>Very negative 1 - 2 - 3 - 4 - 5 - 6 - 7 Very positive","na","word","na","na","na","na",500,"na","na","14","na","na","na","na","na","na","na","8 2 3 4 5 6 7","na","na",83,233,870907,6,16201,0,NA
"ABXONMSGALLE","test",1,0,"RWA","na","na","Our country needs a powerful leader in order to destroy the radical and immoral currents prevailing in society today.<br><br>Very negative 1 - 2 - 3 - 4 - 5 - 6 - 7 Very positive","na","word","na","na","na","na",500,"na","na","14","na","na","na","na","na","na","na","1 2 3 4 5 6 7","na","na",84,226,882251,4,10831,0,NA
"ABXONMSGALLE","test",2,0,"RWA","na","na","Our country needs free thinkers who will have the courage to stand up against traditional ways even if this upsets many people.<br><br>Very negative 1 - 2 - 3 - 4 - 5 - 6 - 7 Very positive","na","word","na","na","na","na",500,"na","na","14","na","na","na","na","na","na","na","2 2 3 4 5 6 7","na","na",85,227,888665,6,5901,0,NA
"ABXONMSGALLE","test",4,0,"RWA","na","na","Our society would be better off if we showed tolerance and understanding for untraditional values and opinions.<br><br>Very negative 1 - 2 - 3 - 4 - 5 - 6 - 7 Very positive","na","word","na","na","na","na",500,"na","na","14","na","na","na","na","na","na","na","4 2 3 4 5 6 7","na","na",86,229,894507,7,5318,0,NA
"ABXONMSGALLE","test",10,0,"RWA","na","na","People ought to put less attention to the Bible and religion instead they ought to develop their own moral standards.<br><br>Very negative 1 - 2 - 3 - 4 - 5 - 6 - 7 Very positive","na","word","na","na","na","na",500,"na","na","14","na","na","na","na","na","na","na","10 2 3 4 5 6 7","na","na",87,235,902897,6,7872,0,NA
"ABXONMSGALLE","test",13,0,"RWA","na","na","Facts show that we have to be harder against crime and sexual immorality in order to uphold law and order.<br><br>Very negative 1 - 2 - 3 - 4 - 5 - 6 - 7 Very positive","na","word","na","na","na","na",500,"na","na","14","na","na","na","na","na","na","na","13 2 3 4 5 6 7","na","na",88,238,914212,4,10792,0,NA
"ABXONMSGALLE","test",6,0,"RWA","na","na","The society needs to show openness towards people thinking differently rather than a strong leader the world is not particularly evil or dangerous.<br><br>Very negative 1 - 2 - 3 - 4 - 5 - 6 - 7 Very positive","na","word","na","na","na","na",500,"na","na","14","na","na","na","na","na","na","na","6 2 3 4 5 6 7","na","na",89,231,930395,5,15672,0,NA
"ABXONMSGALLE","test",15,0,"RWA","na","na","If the society so wants it is the duty of every true citizen to help eliminate the evil that poisons our country from within.<br><br>Very negative 1 - 2 - 3 - 4 - 5 - 6 - 7 Very positive","na","word","na","na","na","na",500,"na","na","14","na","na","na","na","na","na","na","15 2 3 4 5 6 7","na","na",90,240,943783,5,12866,0,NA
"ABXONMSGALLE","test",7,0,"RWA","na","na","It would be best if newspapers were censored so that people would not be able to get hold of destructive and disgusting material.<br><br>Very negative 1 - 2 - 3 - 4 - 5 - 6 - 7 Very positive","na","word","na","na","na","na",500,"na","na","14","na","na","na","na","na","na","na","7 2 3 4 5 6 7","na","na",91,232,949035,2,4731,0,NA
"ABXONMSGALLE","test",14,0,"RWA","na","na","The situation in the society of today would be improved if troublemakers were treated with reason and humanity.<br><br>Very negative 1 - 2 - 3 - 4 - 5 - 6 - 7 Very positive","na","word","na","na","na","na",500,"na","na","14","na","na","na","na","na","na","na","14 2 3 4 5 6 7","na","na",92,239,959943,4,10396,0,NA
"ABXONMSGALLE","test",12,0,"RWA","na","na","It is better to accept bad literature than to censor it.<br><br>Very negative 1 - 2 - 3 - 4 - 5 - 6 - 7 Very positive","na","word","na","na","na","na",500,"na","na","14","na","na","na","na","na","na","na","12 2 3 4 5 6 7","na","na",93,237,972012,4,11549,0,NA
"ABXONMSGALLE","test",3,0,"RWA","na","na","The old-fashioned ways and old-fashioned values still show the best way to live.<br><br>Very negative 1 - 2 - 3 - 4 - 5 - 6 - 7 Very positive","na","word","na","na","na","na",500,"na","na","14","na","na","na","na","na","na","na","3 2 3 4 5 6 7","na","na",94,228,978517,4,5986,0,NA
"ABXONMSGALLE","test",9,0,"RWA","na","na","Our forefathers ought to be honored more for the way they have built our society at the same time we ought to put an end to those forces destroying it.<br><br>Very negative 1 - 2 - 3 - 4 - 5 - 6 - 7 Very positive","na","word","na","na","na","na",500,"na","na","14","na","na","na","na","na","na","na","9 2 3 4 5 6 7","na","na",95,234,988646,6,9617,0,NA
"ABXONMSGALLE","test",11,0,"RWA","na","na","There are many radical immoral people trying to ruin things the society ought to stop them.<br><br>Very negative 1 - 2 - 3 - 4 - 5 - 6 - 7 Very positive","na","word","na","na","na","na",500,"na","na","14","na","na","na","na","na","na","na","11 2 3 4 5 6 7","na","na",96,236,1001783,2,12623,0,NA
"ABXONMSGALLE","form",8,0,"SECS","na","na","na","Traditional values","word","1","na","na","na",500,"na","na","15","na","na","na","na","na","na","na","na","slider","0_100_5",97,253,1019961,60,9034,0,NA
"ABXONMSGALLE","form",10,0,"SECS","na","na","na","Business","word","1","na","na","na",500,"na","na","15","na","na","na","na","na","na","na","na","slider","0_100_5",NA,NA,1027141,70,6646,0,NA
"ABXONMSGALLE","form",5,0,"SECS","na","na","na","Welfare benefits","word","1","na","na","na",500,"na","na","15","na","na","na","na","na","na","na","na","slider","0_100_5",NA,NA,1040417,65,12747,0,NA
"ABXONMSGALLE","form",4,0,"SECS","na","na","na","Religion","word","1","na","na","na",500,"na","na","15","na","na","na","na","na","na","na","na","slider","0_100_5",NA,NA,1047801,70,6852,0,NA
"ABXONMSGALLE","form",12,0,"SECS","na","na","na","Patriotism","word","1","na","na","na",500,"na","na","15","na","na","na","na","na","na","na","na","slider","0_100_5",NA,NA,1055559,85,7218,0,NA
"ABXONMSGALLE","form",7,0,"SECS","na","na","na","Traditional marriage","word","1","na","na","na",500,"na","na","15","na","na","na","na","na","na","na","na","slider","0_100_5",NA,NA,1062058,70,5968,0,NA
"ABXONMSGALLE","form",1,0,"SECS","na","na","na","Abortion","word","1","na","na","na",500,"na","na","15","na","na","na","na","na","na","na","na","slider","0_100_5",NA,NA,1070361,55,7771,0,NA
"ABXONMSGALLE","form",3,0,"SECS","na","na","na","Military and national security","word","1","na","na","na",500,"na","na","15","na","na","na","na","na","na","na","na","slider","0_100_5",NA,NA,1080069,75,9170,0,NA
"ABXONMSGALLE","form",2,0,"SECS","na","na","na","Limited government","word","1","na","na","na",500,"na","na","15","na","na","na","na","na","na","na","na","slider","0_100_5",NA,NA,1087070,45,6471,0,NA
"ABXONMSGALLE","form",6,0,"SECS","na","na","na","Gun ownership","word","1","na","na","na",500,"na","na","15","na","na","na","na","na","na","na","na","slider","0_100_5",NA,NA,1092816,5,5213,0,NA
"ABXONMSGALLE","form",11,0,"SECS","na","na","na","The family unit","word","1","na","na","na",500,"na","na","15","na","na","na","na","na","na","na","na","slider","0_100_5",NA,NA,1098221,90,4866,0,NA
"ABXONMSGALLE","form",9,0,"SECS","na","na","na","Fiscal responsibility","word","1","na","na","na",500,"na","na","15","na","na","na","na","na","na","na","na","slider","0_100_5",NA,NA,1103140,85,4388,0,NA
"ABXONMSGALLE","test",18,0,"seriousness","Almost Done !","na","It would be very helpful if you could tell us at this point whether you have taken part seriously<br><br>so that we can use your answers for our scientific analysis or whether you were just clicking through to take a look at the survey?","na","word","na","na","na","na",500,"na","na","na","na","na","na","I have taken part seriously","I have just clicked through Please throw my data away","na","na","na","na","na",NA,NA,1114618,1,10961,0,NA
"ADPZCGIOQBDE","test",1,0,"apprentissage","na","na","Watch carefully these four families","na",".jpg","na","learn04","na","na",500,"na","na","na","na","na","na","NEXT","na","na","na","na","na","na",1,1,192096,1,70505,0,NA
"ADPZCGIOQBDE","test",11,0,"apprentissage","na","na","To which family does this character belong?","na",".jpg","na","P2","na","4",500,"na","na","1","na","Your answer is wrong","Your answer is correct","FAMILY A","FAMILY B","FAMILY C","FAMILY D","na","na","na",2,27,194959,4,2355,1,NA
"ADPZCGIOQBDE","test",10,0,"apprentissage","na","na","To which family does this character belong?","na",".jpg","na","P1","na","4",500,"na","na","1","na","Your answer is wrong","Your answer is correct","FAMILY A","FAMILY B","FAMILY C","FAMILY D","na","na","na",3,26,199892,4,2970,1,NA
"ADPZCGIOQBDE","test",8,0,"apprentissage","na","na","To which family does this character belong?","na",".jpg","na","B7","na","1",500,"na","na","1","na","Your answer is wrong","Your answer is correct","FAMILY A","FAMILY B","FAMILY C","FAMILY D","na","na","na",4,8,203039,1,1471,1,NA
"ADPZCGIOQBDE","test",5,0,"apprentissage","na","na","To which family does this character belong?","na",".jpg","na","B4","na","1",500,"na","na","1","na","Your answer is wrong","Your answer is correct","FAMILY A","FAMILY B","FAMILY C","FAMILY D","na","na","na",5,5,205891,1,1267,1,NA
"ADPZCGIOQBDE","test",18,0,"apprentissage","na","na","To which family does this character belong?","na",".jpg","na","P8","na","4",500,"na","na","1","na","Your answer is wrong","Your answer is correct","FAMILY A","FAMILY B","FAMILY C","FAMILY D","na","na","na",6,33,208806,4,1537,1,NA
"ADPZCGIOQBDE","test",7,0,"apprentissage","na","na","To which family does this character belong?","na",".jpg","na","B6","na","1",500,"na","na","1","na","Your answer is wrong","Your answer is correct","FAMILY A","FAMILY B","FAMILY C","FAMILY D","na","na","na",7,7,212431,1,2225,1,NA
"ADPZCGIOQBDE","test",14,0,"apprentissage","na","na","To which family does this character belong?","na",".jpg","na","M5","na","2",500,"na","na","1","na","Your answer is wrong","Your answer is correct","FAMILY A","FAMILY B","FAMILY C","FAMILY D","na","na","na",8,14,217326,2,3455,1,NA
"ADPZCGIOQBDE","test",2,0,"apprentissage","na","na","To which family does this character belong?","na",".jpg","na","B1","na","1",500,"na","na","1","na","Your answer is wrong","Your answer is correct","FAMILY A","FAMILY B","FAMILY C","FAMILY D","na","na","na",9,2,220921,2,2157,0,NA
"ADPZCGIOQBDE","test",16,0,"apprentissage","na","na","To which family does this character belong?","na",".jpg","na","M6","na","2",500,"na","na","1","na","Your answer is wrong","Your answer is correct","FAMILY A","FAMILY B","FAMILY C","FAMILY D","na","na","na",10,15,225029,2,2434,1,NA
"ADPZCGIOQBDE","test",11,0,"apprentissage","na","na","To which family does this character belong?","na",".jpg","na","M2","na","2",500,"na","na","1","na","Your answer is wrong","Your answer is correct","FAMILY A","FAMILY B","FAMILY C","FAMILY D","na","na","na",11,11,229470,2,3124,1,NA
"ADPZCGIOQBDE","test",17,0,"apprentissage","na","na","To which family does this character belong?","na",".jpg","na","P7","na","4",500,"na","na","1","na","Your answer is wrong","Your answer is correct","FAMILY A","FAMILY B","FAMILY C","FAMILY D","na","na","na",12,32,232530,4,1652,1,NA
"ADPZCGIOQBDE","test",13,0,"apprentissage","na","na","To which family does this character belong?","na",".jpg","na","P4","na","4",500,"na","na","1","na","Your answer is wrong","Your answer is correct","FAMILY A","FAMILY B","FAMILY C","FAMILY D","na","na","na",13,29,235534,4,1537,1,NA
"ADPZCGIOQBDE","test",18,0,"apprentissage","na","na","To which family does this character belong?","na",".jpg","na","M8","na","2",500,"na","na","1","na","Your answer is wrong","Your answer is correct","FAMILY A","FAMILY B","FAMILY C","FAMILY D","na","na","na",14,17,238803,2,1972,1,NA
