"ppt","type","trialNo","subjectGroup","condition1","title","content","trialText","head","stimFormat","pageBreak","stim1","stim2","key","ITI","ISI","presTime","random","randomBlock","feedbackIncorrect","feedbackCorrect","button1","button2","keyboard","responseType","responseOptions","orderPres","orderFile","timestamp","response","RT","correct","responseCode"
"AAIRLZFZJQOC","test",1,0,"apprentissage","na","na","Watch carefully these two families","na",".jpg","na","learn02","na","na",500,"na","na","na","na","na","na","NEXT","na","na","na","na",1,1,138431,1,22275,0,NA
"AAIRLZFZJQOC","test",13,0,"apprentissage","na","na","To which family does this character belong?","na",".jpg","na","M4","na","2",500,"na","na","1","na","Your answer is wrong","Your answer is correct","FAMILY A"," FAMILY B","na","na","na",2,13,141683,2,2715,1,NA
"AAIRLZFZJQOC","test",6,0,"apprentissage","na","na","To which family does this character belong?","na",".jpg","na","B5","na","1",500,"na","na","1","na","Your answer is wrong","Your answer is correct","FAMILY A"," FAMILY B","na","na","na",3,6,146119,1,2018,1,NA
"AAIRLZFZJQOC","test",15,0,"apprentissage","na","na","To which family does this character belong?","na",".jpg","na","M5","na","2",500,"na","na","1","na","Your answer is wrong","Your answer is correct","FAMILY A"," FAMILY B","na","na","na",4,15,151213,2,2108,1,NA
"AAIRLZFZJQOC","test",10,0,"apprentissage","na","na","To which family does this character belong?","na",".jpg","na","M1","na","2",500,"na","na","1","na","Your answer is wrong","Your answer is correct","FAMILY A"," FAMILY B","na","na","na",5,10,155227,2,1887,1,NA
"AAIRLZFZJQOC","test",9,0,"apprentissage","na","na","To which family does this character belong?","na",".jpg","na","B8","na","1",500,"na","na","1","na","Your answer is wrong","Your answer is correct","FAMILY A"," FAMILY B","na","na","na",6,9,159136,1,1954,1,NA
"AAIRLZFZJQOC","test",18,0,"apprentissage","na","na","To which family does this character belong?","na",".jpg","na","M8","na","2",500,"na","na","1","na","Your answer is wrong","Your answer is correct","FAMILY A"," FAMILY B","na","na","na",7,18,163412,2,1933,1,NA
"AAIRLZFZJQOC","test",3,0,"apprentissage","na","na","To which family does this character belong?","na",".jpg","na","B2","na","1",500,"na","na","1","na","Your answer is wrong","Your answer is correct","FAMILY A"," FAMILY B","na","na","na",8,3,167688,1,1906,1,NA
"AAIRLZFZJQOC","test",4,0,"apprentissage","na","na","To which family does this character belong?","na",".jpg","na","B3","na","1",500,"na","na","1","na","Your answer is wrong","Your answer is correct","FAMILY A"," FAMILY B","na","na","na",9,4,171405,1,1643,1,NA
"AAIRLZFZJQOC","test",16,0,"apprentissage","na","na","To which family does this character belong?","na",".jpg","na","M6","na","2",500,"na","na","1","na","Your answer is wrong","Your answer is correct","FAMILY A"," FAMILY B","na","na","na",10,16,175333,2,1805,1,NA
"AAIRLZFZJQOC","test",2,0,"apprentissage","na","na","To which family does this character belong?","na",".jpg","na","B1","na","1",500,"na","na","1","na","Your answer is wrong","Your answer is correct","FAMILY A"," FAMILY B","na","na","na",11,2,179086,1,1777,1,NA
"AAIRLZFZJQOC","test",11,0,"apprentissage","na","na","To which family does this character belong?","na",".jpg","na","M2","na","2",500,"na","na","1","na","Your answer is wrong","Your answer is correct","FAMILY A"," FAMILY B","na","na","na",12,11,183008,2,1923,1,NA
"AAIRLZFZJQOC","test",8,0,"apprentissage","na","na","To which family does this character belong?","na",".jpg","na","B7","na","1",500,"na","na","1","na","Your answer is wrong","Your answer is correct","FAMILY A"," FAMILY B","na","na","na",13,8,186500,1,1638,1,NA
"AAIRLZFZJQOC","test",12,0,"apprentissage","na","na","To which family does this character belong?","na",".jpg","na","M3","na","2",500,"na","na","1","na","Your answer is wrong","Your answer is correct","FAMILY A"," FAMILY B","na","na","na",14,12,190500,2,1860,1,NA
"AAIRLZFZJQOC","test",5,0,"apprentissage","na","na","To which family does this character belong?","na",".jpg","na","B4","na","1",500,"na","na","1","na","Your answer is wrong","Your answer is correct","FAMILY A"," FAMILY B","na","na","na",15,5,195649,1,3166,1,NA
"AAIRLZFZJQOC","test",17,0,"apprentissage","na","na","To which family does this character belong?","na",".jpg","na","M7","na","2",500,"na","na","1","na","Your answer is wrong","Your answer is correct","FAMILY A"," FAMILY B","na","na","na",16,17,199173,2,1658,1,NA
"AAIRLZFZJQOC","test",14,0,"apprentissage","na","na","To which family does this character belong?","na",".jpg","na","M5","na","2",500,"na","na","1","na","Your answer is wrong","Your answer is correct","FAMILY A"," FAMILY B","na","na","na",17,14,202374,2,1562,1,NA
"AAIRLZFZJQOC","test",7,0,"apprentissage","na","na","To which family does this character belong?","na",".jpg","na","B6","na","1",500,"na","na","1","na","Your answer is wrong","Your answer is correct","FAMILY A"," FAMILY B","na","na","na",18,7,205940,1,1728,1,NA
"AAIRLZFZJQOC","test",1,2,"ratings2","na","na","Your general feelings about this member are:<br><br>Very negative 1 - 2 - 3 - 4 - 5 - 6 - 7 - 8 - 9 Very positive","na",".jpg","na","B1","na","na",500,"na","na","12","na","na","na","na","na","1 2 3 4 5 6 7 8 9","na","na",19,51,419742,7,9034,0,NA
"AAIRLZFZJQOC","test",7,2,"ratings2","na","na","Your general feelings about this member are:<br><br>Very negative 1 - 2 - 3 - 4 - 5 - 6 - 7 - 8 - 9 Very positive","na",".jpg","na","B7","na","na",500,"na","na","12","na","na","na","na","na","1 2 3 4 5 6 7 8 9","na","na",20,57,426734,6,6384,0,NA
"AAIRLZFZJQOC","test",2,2,"ratings2","na","na","Your general feelings about this member are:<br><br>Very negative 1 - 2 - 3 - 4 - 5 - 6 - 7 - 8 - 9 Very positive","na",".jpg","na","B2","na","na",500,"na","na","12","na","na","na","na","na","1 2 3 4 5 6 7 8 9","na","na",21,52,430557,7,3297,0,NA
"AAIRLZFZJQOC","test",3,2,"ratings2","na","na","Your general feelings about this member are:<br><br>Very negative 1 - 2 - 3 - 4 - 5 - 6 - 7 - 8 - 9 Very positive","na",".jpg","na","B3","na","na",500,"na","na","12","na","na","na","na","na","1 2 3 4 5 6 7 8 9","na","na",22,53,433152,7,2069,0,NA
"AAIRLZFZJQOC","test",15,2,"ratings2","na","na","Your general feelings about this member are:<br><br>Very negative 1 - 2 - 3 - 4 - 5 - 6 - 7 - 8 - 9 Very positive","na",".jpg","na","M7","na","na",500,"na","na","12","na","na","na","na","na","1 2 3 4 5 6 7 8 9","na","na",23,65,436938,5,3258,0,NA
"AAIRLZFZJQOC","test",5,2,"ratings2","na","na","Your general feelings about this member are:<br><br>Very negative 1 - 2 - 3 - 4 - 5 - 6 - 7 - 8 - 9 Very positive","na",".jpg","na","B5","na","na",500,"na","na","12","na","na","na","na","na","1 2 3 4 5 6 7 8 9","na","na",24,55,440192,6,2727,0,NA
"AAIRLZFZJQOC","test",13,2,"ratings2","na","na","Your general feelings about this member are:<br><br>Very negative 1 - 2 - 3 - 4 - 5 - 6 - 7 - 8 - 9 Very positive","na",".jpg","na","M5","na","na",500,"na","na","12","na","na","na","na","na","1 2 3 4 5 6 7 8 9","na","na",25,63,442764,4,2047,0,NA
"AAIRLZFZJQOC","test",12,2,"ratings2","na","na","Your general feelings about this member are:<br><br>Very negative 1 - 2 - 3 - 4 - 5 - 6 - 7 - 8 - 9 Very positive","na",".jpg","na","M4","na","na",500,"na","na","12","na","na","na","na","na","1 2 3 4 5 6 7 8 9","na","na",26,62,445651,4,2362,0,NA
"AAIRLZFZJQOC","test",6,2,"ratings2","na","na","Your general feelings about this member are:<br><br>Very negative 1 - 2 - 3 - 4 - 5 - 6 - 7 - 8 - 9 Very positive","na",".jpg","na","B6","na","na",500,"na","na","12","na","na","na","na","na","1 2 3 4 5 6 7 8 9","na","na",27,56,448233,5,2056,0,NA
"AAIRLZFZJQOC","test",14,2,"ratings2","na","na","Your general feelings about this member are:<br><br>Very negative 1 - 2 - 3 - 4 - 5 - 6 - 7 - 8 - 9 Very positive","na",".jpg","na","M6","na","na",500,"na","na","12","na","na","na","na","na","1 2 3 4 5 6 7 8 9","na","na",28,64,449907,4,1149,0,NA
"AAIRLZFZJQOC","test",11,2,"ratings2","na","na","Your general feelings about this member are:<br><br>Very negative 1 - 2 - 3 - 4 - 5 - 6 - 7 - 8 - 9 Very positive","na",".jpg","na","M3","na","na",500,"na","na","12","na","na","na","na","na","1 2 3 4 5 6 7 8 9","na","na",29,61,453049,4,2618,0,NA
"AAIRLZFZJQOC","test",4,2,"ratings2","na","na","Your general feelings about this member are:<br><br>Very negative 1 - 2 - 3 - 4 - 5 - 6 - 7 - 8 - 9 Very positive","na",".jpg","na","B4","na","na",500,"na","na","12","na","na","na","na","na","1 2 3 4 5 6 7 8 9","na","na",30,54,455342,6,1767,0,NA
"AAIRLZFZJQOC","test",16,2,"ratings2","na","na","Your general feelings about this member are:<br><br>Very negative 1 - 2 - 3 - 4 - 5 - 6 - 7 - 8 - 9 Very positive","na",".jpg","na","M8","na","na",500,"na","na","12","na","na","na","na","na","1 2 3 4 5 6 7 8 9","na","na",31,66,457624,3,1757,0,NA
"AAIRLZFZJQOC","test",8,2,"ratings2","na","na","Your general feelings about this member are:<br><br>Very negative 1 - 2 - 3 - 4 - 5 - 6 - 7 - 8 - 9 Very positive","na",".jpg","na","B8","na","na",500,"na","na","12","na","na","na","na","na","1 2 3 4 5 6 7 8 9","na","na",32,58,460599,5,2451,0,NA
"AAIRLZFZJQOC","test",9,2,"ratings2","na","na","Your general feelings about this member are:<br><br>Very negative 1 - 2 - 3 - 4 - 5 - 6 - 7 - 8 - 9 Very positive","na",".jpg","na","M1","na","na",500,"na","na","12","na","na","na","na","na","1 2 3 4 5 6 7 8 9","na","na",33,59,465154,3,4029,0,NA
"AAIRLZFZJQOC","test",10,2,"ratings2","na","na","Your general feelings about this member are:<br><br>Very negative 1 - 2 - 3 - 4 - 5 - 6 - 7 - 8 - 9 Very positive","na",".jpg","na","M2","na","na",500,"na","na","12","na","na","na","na","na","1 2 3 4 5 6 7 8 9","na","na",34,60,467029,3,1349,0,NA
"AAIRLZFZJQOC","test",13,0,"RWA","na","na","Facts show that we have to be harder against crime and sexual immorality in order to uphold law and order.<br><br>Very negative 1 - 2 - 3 - 4 - 5 - 6 - 7 Very positive","na","word","na","na","na","na",500,"na","na","14","na","na","na","na","na","1 2 3 4 5 6 7 8 9","na","na",35,95,480209,7,7329,0,NA
"AAIRLZFZJQOC","test",14,0,"RWA","na","na","The situation in the society of today would be improved if troublemakers were treated with reason and humanity.<br><br>Very negative 1 - 2 - 3 - 4 - 5 - 6 - 7 Very positive","na","word","na","na","na","na",500,"na","na","14","na","na","na","na","na","1 2 3 4 5 6 7 8 9","na","na",36,96,487586,2,6854,0,NA
"AAIRLZFZJQOC","test",2,0,"RWA","na","na","Our country needs free thinkers who will have the courage to stand up against traditional ways even if this upsets many people.<br><br>Very negative 1 - 2 - 3 - 4 - 5 - 6 - 7 Very positive","na","word","na","na","na","na",500,"na","na","14","na","na","na","na","na","1 2 3 4 5 6 7 8 9","na","na",37,84,491855,7,3747,0,NA
"AAIRLZFZJQOC","test",8,0,"RWA","na","na","Many good people challenge the state criticize the church and ignore the normal way of living.<br><br>Very negative 1 - 2 - 3 - 4 - 5 - 6 - 7 Very positive","na","word","na","na","na","na",500,"na","na","14","na","na","na","na","na","1 2 3 4 5 6 7 8 9","na","na",38,90,500201,5,7824,0,NA
"AAIRLZFZJQOC","test",12,0,"RWA","na","na","It is better to accept bad literature than to censor it.<br><br>Very negative 1 - 2 - 3 - 4 - 5 - 6 - 7 Very positive","na","word","na","na","na","na",500,"na","na","14","na","na","na","na","na","1 2 3 4 5 6 7 8 9","na","na",39,94,505287,5,4565,0,NA
"AAIRLZFZJQOC","test",11,0,"RWA","na","na","There are many radical immoral people trying to ruin things the society ought to stop them.<br><br>Very negative 1 - 2 - 3 - 4 - 5 - 6 - 7 Very positive","na","word","na","na","na","na",500,"na","na","14","na","na","na","na","na","1 2 3 4 5 6 7 8 9","na","na",40,93,512998,4,7190,0,NA
"AAIRLZFZJQOC","test",5,0,"RWA","na","na","Gods laws about abortion pornography and marriage must be strictly followed before it is too late violations must be punished.<br><br>Very negative 1 - 2 - 3 - 4 - 5 - 6 - 7 Very positive","na","word","na","na","na","na",500,"na","na","14","na","na","na","na","na","1 2 3 4 5 6 7 8 9","na","na",41,87,518793,1,5277,0,NA
"AAIRLZFZJQOC","test",7,0,"RWA","na","na","It would be best if newspapers were censored so that people would not be able to get hold of destructive and disgusting material.<br><br>Very negative 1 - 2 - 3 - 4 - 5 - 6 - 7 Very positive","na","word","na","na","na","na",500,"na","na","14","na","na","na","na","na","1 2 3 4 5 6 7 8 9","na","na",42,89,523857,2,4544,0,NA
"AAIRLZFZJQOC","test",6,0,"RWA","na","na","The society needs to show openness towards people thinking differently rather than a strong leader the world is not particularly evil or dangerous.<br><br>Very negative 1 - 2 - 3 - 4 - 5 - 6 - 7 Very positive","na","word","na","na","na","na",500,"na","na","14","na","na","na","na","na","1 2 3 4 5 6 7 8 9","na","na",43,88,535658,5,11280,0,NA
"AAIRLZFZJQOC","test",10,0,"RWA","na","na","People ought to put less attention to the Bible and religion instead they ought to develop their own moral standards.<br><br>Very negative 1 - 2 - 3 - 4 - 5 - 6 - 7 Very positive","na","word","na","na","na","na",500,"na","na","14","na","na","na","na","na","1 2 3 4 5 6 7 8 9","na","na",44,92,540226,7,4047,0,NA
"AAIRLZFZJQOC","test",15,0,"RWA","na","na","If the society so wants it is the duty of every true citizen to help eliminate the evil that poisons our country from within.<br><br>Very negative 1 - 2 - 3 - 4 - 5 - 6 - 7 Very positive","na","word","na","na","na","na",500,"na","na","14","na","na","na","na","na","1 2 3 4 5 6 7 8 9","na","na",45,97,546059,4,5314,0,NA
"AAIRLZFZJQOC","test",1,0,"RWA","na","na","Our country needs a powerful leader in order to destroy the radical and immoral currents prevailing in society today.<br><br>Very negative 1 - 2 - 3 - 4 - 5 - 6 - 7 Very positive","na","word","na","na","na","na",500,"na","na","14","na","na","na","na","na","1 2 3 4 5 6 7 8 9","na","na",46,83,551341,4,4761,0,NA
"AAIRLZFZJQOC","test",9,0,"RWA","na","na","Our forefathers ought to be honored more for the way they have built our society at the same time we ought to put an end to those forces destroying it.<br><br>Very negative 1 - 2 - 3 - 4 - 5 - 6 - 7 Very positive","na","word","na","na","na","na",500,"na","na","14","na","na","na","na","na","1 2 3 4 5 6 7 8 9","na","na",47,91,559225,3,7361,0,NA
"AAIRLZFZJQOC","test",4,0,"RWA","na","na","Our society would be better off if we showed tolerance and understanding for untraditional values and opinions.<br><br>Very negative 1 - 2 - 3 - 4 - 5 - 6 - 7 Very positive","na","word","na","na","na","na",500,"na","na","14","na","na","na","na","na","1 2 3 4 5 6 7 8 9","na","na",48,86,565549,6,5804,0,NA
"AAIRLZFZJQOC","test",3,0,"RWA","na","na","The old-fashioned ways and old-fashioned values still show the best way to live.<br><br>Very negative 1 - 2 - 3 - 4 - 5 - 6 - 7 Very positive","na","word","na","na","na","na",500,"na","na","14","na","na","na","na","na","1 2 3 4 5 6 7 8 9","na","na",49,85,569176,1,3106,0,NA
"AAIRLZFZJQOC","form",5,0,"SECS","na","na","na","Welfare benefits","word","1","na","na","na",500,"na","na","15","na","na","na","na","na","na","slider","0_100_5",NA,NA,579883,80,5575,0,NA
"AAIRLZFZJQOC","form",7,0,"SECS","na","na","na","Traditional marriage","word","1","na","na","na",500,"na","na","15","na","na","na","na","na","na","slider","0_100_5",NA,NA,584390,50,3691,0,NA
"AAIRLZFZJQOC","form",11,0,"SECS","na","na","na","The family unit","word","1","na","na","na",500,"na","na","15","na","na","na","na","na","na","slider","0_100_5",NA,NA,588791,65,3613,0,NA
"AAIRLZFZJQOC","form",4,0,"SECS","na","na","na","Religion","word","1","na","na","na",500,"na","na","15","na","na","na","na","na","na","slider","0_100_5",NA,NA,592080,0,2682,0,NA
"AAIRLZFZJQOC","form",2,0,"SECS","na","na","na","Limited government","word","1","na","na","na",500,"na","na","15","na","na","na","na","na","na","slider","0_100_5",NA,NA,596352,45,3572,0,NA
"AAIRLZFZJQOC","form",10,0,"SECS","na","na","na","Business","word","1","na","na","na",500,"na","na","15","na","na","na","na","na","na","slider","0_100_5",NA,NA,600111,55,3164,0,NA
"AAIRLZFZJQOC","form",6,0,"SECS","na","na","na","Gun ownership","word","1","na","na","na",500,"na","na","15","na","na","na","na","na","na","slider","0_100_5",NA,NA,603170,0,2464,0,NA
"AAIRLZFZJQOC","form",9,0,"SECS","na","na","na","Fiscal responsibility","word","1","na","na","na",500,"na","na","15","na","na","na","na","na","na","slider","0_100_5",NA,NA,607832,60,4060,0,NA
"AAIRLZFZJQOC","form",12,0,"SECS","na","na","na","Patriotism","word","1","na","na","na",500,"na","na","15","na","na","na","na","na","na","slider","0_100_5",NA,NA,612859,50,4366,0,NA
"AAIRLZFZJQOC","form",3,0,"SECS","na","na","na","Military and national security","word","1","na","na","na",500,"na","na","15","na","na","na","na","na","na","slider","0_100_5",NA,NA,619499,65,5989,0,NA
"AAIRLZFZJQOC","form",8,0,"SECS","na","na","na","Traditional values","word","1","na","na","na",500,"na","na","15","na","na","na","na","na","na","slider","0_100_5",NA,NA,624337,25,4003,0,NA
"AAIRLZFZJQOC","form",1,0,"SECS","na","na","na","Abortion","word","1","na","na","na",500,"na","na","15","na","na","na","na","na","na","slider","0_100_5",NA,NA,628861,50,3925,0,NA
"AATCBFXQNFEX","test",1,0,"apprentissage","na","na","Watch carefully these two families","na",".jpg","na","learn02","na","na",500,"na","na","na","na","na","na","NEXT","na","na","na","na",1,1,95933,1,17721,0,NA
"AATCBFXQNFEX","test",16,0,"apprentissage","na","na","To which family does this character belong?","na",".jpg","na","M6","na","2",500,"na","na","1","na","Your answer is wrong","Your answer is correct","FAMILY A"," FAMILY B","na","na","na",2,16,98572,2,2131,1,NA
"AATCBFXQNFEX","test",6,0,"apprentissage","na","na","To which family does this character belong?","na",".jpg","na","B5","na","1",500,"na","na","1","na","Your answer is wrong","Your answer is correct","FAMILY A"," FAMILY B","na","na","na",3,6,102168,1,1510,1,NA
"AATCBFXQNFEX","test",17,0,"apprentissage","na","na","To which family does this character belong?","na",".jpg","na","M7","na","2",500,"na","na","1","na","Your answer is wrong","Your answer is correct","FAMILY A"," FAMILY B","na","na","na",4,17,105454,2,1568,1,NA
"AATCBFXQNFEX","test",4,0,"apprentissage","na","na","To which family does this character belong?","na",".jpg","na","B3","na","1",500,"na","na","1","na","Your answer is wrong","Your answer is correct","FAMILY A"," FAMILY B","na","na","na",5,4,108808,1,1736,1,NA
"AATCBFXQNFEX","test",8,0,"apprentissage","na","na","To which family does this character belong?","na",".jpg","na","B7","na","1",500,"na","na","1","na","Your answer is wrong","Your answer is correct","FAMILY A"," FAMILY B","na","na","na",6,8,112990,1,2118,1,NA
"AATCBFXQNFEX","test",18,0,"apprentissage","na","na","To which family does this character belong?","na",".jpg","na","M8","na","2",500,"na","na","1","na","Your answer is wrong","Your answer is correct","FAMILY A"," FAMILY B","na","na","na",7,18,116151,2,1463,1,NA
"AATCBFXQNFEX","test",11,0,"apprentissage","na","na","To which family does this character belong?","na",".jpg","na","M2","na","2",500,"na","na","1","na","Your answer is wrong","Your answer is correct","FAMILY A"," FAMILY B","na","na","na",8,11,121037,2,3357,1,NA
"AATCBFXQNFEX","test",14,0,"apprentissage","na","na","To which family does this character belong?","na",".jpg","na","M5","na","2",500,"na","na","1","na","Your answer is wrong","Your answer is correct","FAMILY A"," FAMILY B","na","na","na",9,14,124780,2,2214,1,NA
"AATCBFXQNFEX","test",3,0,"apprentissage","na","na","To which family does this character belong?","na",".jpg","na","B2","na","1",500,"na","na","1","na","Your answer is wrong","Your answer is correct","FAMILY A"," FAMILY B","na","na","na",10,3,127755,1,1340,1,NA
"AATCBFXQNFEX","test",13,0,"apprentissage","na","na","To which family does this character belong?","na",".jpg","na","M4","na","2",500,"na","na","1","na","Your answer is wrong","Your answer is correct","FAMILY A"," FAMILY B","na","na","na",11,13,131380,2,1818,1,NA
"AATCBFXQNFEX","test",2,0,"apprentissage","na","na","To which family does this character belong?","na",".jpg","na","B1","na","1",500,"na","na","1","na","Your answer is wrong","Your answer is correct","FAMILY A"," FAMILY B","na","na","na",12,2,138416,1,5494,1,NA
"AATCBFXQNFEX","test",7,0,"apprentissage","na","na","To which family does this character belong?","na",".jpg","na","B6","na","1",500,"na","na","1","na","Your answer is wrong","Your answer is correct","FAMILY A"," FAMILY B","na","na","na",13,7,148064,2,7911,0,NA
"AATCBFXQNFEX","test",9,0,"apprentissage","na","na","To which family does this character belong?","na",".jpg","na","B8","na","1",500,"na","na","1","na","Your answer is wrong","Your answer is correct","FAMILY A"," FAMILY B","na","na","na",14,9,151667,1,1447,1,NA
"AATCBFXQNFEX","test",5,0,"apprentissage","na","na","To which family does this character belong?","na",".jpg","na","B4","na","1",500,"na","na","1","na","Your answer is wrong","Your answer is correct","FAMILY A"," FAMILY B","na","na","na",15,5,154701,1,1416,1,NA
"AATCBFXQNFEX","test",12,0,"apprentissage","na","na","To which family does this character belong?","na",".jpg","na","M3","na","2",500,"na","na","1","na","Your answer is wrong","Your answer is correct","FAMILY A"," FAMILY B","na","na","na",16,12,157803,2,1596,1,NA
"AATCBFXQNFEX","test",10,0,"apprentissage","na","na","To which family does this character belong?","na",".jpg","na","M1","na","2",500,"na","na","1","na","Your answer is wrong","Your answer is correct","FAMILY A"," FAMILY B","na","na","na",17,10,160750,2,1276,1,NA
"AATCBFXQNFEX","test",15,0,"apprentissage","na","na","To which family does this character belong?","na",".jpg","na","M5","na","2",500,"na","na","1","na","Your answer is wrong","Your answer is correct","FAMILY A"," FAMILY B","na","na","na",18,15,164156,2,1966,1,NA
"AATCBFXQNFEX","test",3,2,"ratings2","na","na","Your general feelings about this member are:<br><br>Very negative 1 - 2 - 3 - 4 - 5 - 6 - 7 - 8 - 9 Very positive","na",".jpg","na","B3","na","na",500,"na","na","12","na","na","na","na","na","1 2 3 4 5 6 7 8 9","na","na",19,53,371842,5,2208,0,NA
"AATCBFXQNFEX","test",6,2,"ratings2","na","na","Your general feelings about this member are:<br><br>Very negative 1 - 2 - 3 - 4 - 5 - 6 - 7 - 8 - 9 Very positive","na",".jpg","na","B6","na","na",500,"na","na","12","na","na","na","na","na","1 2 3 4 5 6 7 8 9","na","na",20,56,374721,5,2370,0,NA
"AATCBFXQNFEX","test",14,2,"ratings2","na","na","Your general feelings about this member are:<br><br>Very negative 1 - 2 - 3 - 4 - 5 - 6 - 7 - 8 - 9 Very positive","na",".jpg","na","M6","na","na",500,"na","na","12","na","na","na","na","na","1 2 3 4 5 6 7 8 9","na","na",21,64,375769,5,541,0,NA
"AATCBFXQNFEX","test",12,2,"ratings2","na","na","Your general feelings about this member are:<br><br>Very negative 1 - 2 - 3 - 4 - 5 - 6 - 7 - 8 - 9 Very positive","na",".jpg","na","M4","na","na",500,"na","na","12","na","na","na","na","na","1 2 3 4 5 6 7 8 9","na","na",22,62,376714,5,436,0,NA
"AATCBFXQNFEX","test",5,2,"ratings2","na","na","Your general feelings about this member are:<br><br>Very negative 1 - 2 - 3 - 4 - 5 - 6 - 7 - 8 - 9 Very positive","na",".jpg","na","B5","na","na",500,"na","na","12","na","na","na","na","na","1 2 3 4 5 6 7 8 9","na","na",23,55,377914,5,694,0,NA
"AATCBFXQNFEX","test",4,2,"ratings2","na","na","Your general feelings about this member are:<br><br>Very negative 1 - 2 - 3 - 4 - 5 - 6 - 7 - 8 - 9 Very positive","na",".jpg","na","B4","na","na",500,"na","na","12","na","na","na","na","na","1 2 3 4 5 6 7 8 9","na","na",24,54,378922,5,497,0,NA
"AATCBFXQNFEX","test",10,2,"ratings2","na","na","Your general feelings about this member are:<br><br>Very negative 1 - 2 - 3 - 4 - 5 - 6 - 7 - 8 - 9 Very positive","na",".jpg","na","M2","na","na",500,"na","na","12","na","na","na","na","na","1 2 3 4 5 6 7 8 9","na","na",25,60,379884,5,455,0,NA
"AATCBFXQNFEX","test",8,2,"ratings2","na","na","Your general feelings about this member are:<br><br>Very negative 1 - 2 - 3 - 4 - 5 - 6 - 7 - 8 - 9 Very positive","na",".jpg","na","B8","na","na",500,"na","na","12","na","na","na","na","na","1 2 3 4 5 6 7 8 9","na","na",26,58,380866,5,476,0,NA
"AATCBFXQNFEX","test",13,2,"ratings2","na","na","Your general feelings about this member are:<br><br>Very negative 1 - 2 - 3 - 4 - 5 - 6 - 7 - 8 - 9 Very positive","na",".jpg","na","M5","na","na",500,"na","na","12","na","na","na","na","na","1 2 3 4 5 6 7 8 9","na","na",27,63,382082,5,708,0,NA
"AATCBFXQNFEX","test",2,2,"ratings2","na","na","Your general feelings about this member are:<br><br>Very negative 1 - 2 - 3 - 4 - 5 - 6 - 7 - 8 - 9 Very positive","na",".jpg","na","B2","na","na",500,"na","na","12","na","na","na","na","na","1 2 3 4 5 6 7 8 9","na","na",28,52,383178,5,590,0,NA
"AATCBFXQNFEX","test",15,2,"ratings2","na","na","Your general feelings about this member are:<br><br>Very negative 1 - 2 - 3 - 4 - 5 - 6 - 7 - 8 - 9 Very positive","na",".jpg","na","M7","na","na",500,"na","na","12","na","na","na","na","na","1 2 3 4 5 6 7 8 9","na","na",29,65,384090,5,404,0,NA
"AATCBFXQNFEX","test",9,2,"ratings2","na","na","Your general feelings about this member are:<br><br>Very negative 1 - 2 - 3 - 4 - 5 - 6 - 7 - 8 - 9 Very positive","na",".jpg","na","M1","na","na",500,"na","na","12","na","na","na","na","na","1 2 3 4 5 6 7 8 9","na","na",30,59,385058,5,462,0,NA
"AATCBFXQNFEX","test",16,2,"ratings2","na","na","Your general feelings about this member are:<br><br>Very negative 1 - 2 - 3 - 4 - 5 - 6 - 7 - 8 - 9 Very positive","na",".jpg","na","M8","na","na",500,"na","na","12","na","na","na","na","na","1 2 3 4 5 6 7 8 9","na","na",31,66,386002,5,433,0,NA
"AATCBFXQNFEX","test",1,2,"ratings2","na","na","Your general feelings about this member are:<br><br>Very negative 1 - 2 - 3 - 4 - 5 - 6 - 7 - 8 - 9 Very positive","na",".jpg","na","B1","na","na",500,"na","na","12","na","na","na","na","na","1 2 3 4 5 6 7 8 9","na","na",32,51,387018,5,510,0,NA
"AATCBFXQNFEX","test",7,2,"ratings2","na","na","Your general feelings about this member are:<br><br>Very negative 1 - 2 - 3 - 4 - 5 - 6 - 7 - 8 - 9 Very positive","na",".jpg","na","B7","na","na",500,"na","na","12","na","na","na","na","na","1 2 3 4 5 6 7 8 9","na","na",33,57,388018,5,494,0,NA
"AATCBFXQNFEX","test",11,2,"ratings2","na","na","Your general feelings about this member are:<br><br>Very negative 1 - 2 - 3 - 4 - 5 - 6 - 7 - 8 - 9 Very positive","na",".jpg","na","M3","na","na",500,"na","na","12","na","na","na","na","na","1 2 3 4 5 6 7 8 9","na","na",34,61,389202,5,677,0,NA
"AATCBFXQNFEX","test",14,0,"RWA","na","na","The situation in the society of today would be improved if troublemakers were treated with reason and humanity.<br><br>Very negative 1 - 2 - 3 - 4 - 5 - 6 - 7 Very positive","na","word","na","na","na","na",500,"na","na","14","na","na","na","na","na","1 2 3 4 5 6 7 8 9","na","na",35,96,405855,6,9168,0,NA
"AATCBFXQNFEX","test",8,0,"RWA","na","na","Many good people challenge the state criticize the church and ignore the normal way of living.<br><br>Very negative 1 - 2 - 3 - 4 - 5 - 6 - 7 Very positive","na","word","na","na","na","na",500,"na","na","14","na","na","na","na","na","1 2 3 4 5 6 7 8 9","na","na",36,90,415706,6,9343,0,NA
"AATCBFXQNFEX","test",13,0,"RWA","na","na","Facts show that we have to be harder against crime and sexual immorality in order to uphold law and order.<br><br>Very negative 1 - 2 - 3 - 4 - 5 - 6 - 7 Very positive","na","word","na","na","na","na",500,"na","na","14","na","na","na","na","na","1 2 3 4 5 6 7 8 9","na","na",37,95,421807,4,5596,0,NA
"AATCBFXQNFEX","test",10,0,"RWA","na","na","People ought to put less attention to the Bible and religion instead they ought to develop their own moral standards.<br><br>Very negative 1 - 2 - 3 - 4 - 5 - 6 - 7 Very positive","na","word","na","na","na","na",500,"na","na","14","na","na","na","na","na","1 2 3 4 5 6 7 8 9","na","na",38,92,427202,7,4886,0,NA
"AATCBFXQNFEX","test",2,0,"RWA","na","na","Our country needs free thinkers who will have the courage to stand up against traditional ways even if this upsets many people.<br><br>Very negative 1 - 2 - 3 - 4 - 5 - 6 - 7 Very positive","na","word","na","na","na","na",500,"na","na","14","na","na","na","na","na","1 2 3 4 5 6 7 8 9","na","na",39,84,437237,4,9530,0,NA
"AATCBFXQNFEX","test",3,0,"RWA","na","na","The old-fashioned ways and old-fashioned values still show the best way to live.<br><br>Very negative 1 - 2 - 3 - 4 - 5 - 6 - 7 Very positive","na","word","na","na","na","na",500,"na","na","14","na","na","na","na","na","1 2 3 4 5 6 7 8 9","na","na",40,85,441747,2,4004,0,NA
"AATCBFXQNFEX","test",4,0,"RWA","na","na","Our society would be better off if we showed tolerance and understanding for untraditional values and opinions.<br><br>Very negative 1 - 2 - 3 - 4 - 5 - 6 - 7 Very positive","na","word","na","na","na","na",500,"na","na","14","na","na","na","na","na","1 2 3 4 5 6 7 8 9","na","na",41,86,448181,6,5926,0,NA
"AATCBFXQNFEX","test",9,0,"RWA","na","na","Our forefathers ought to be honored more for the way they have built our society at the same time we ought to put an end to those forces destroying it.<br><br>Very negative 1 - 2 - 3 - 4 - 5 - 6 - 7 Very positive","na","word","na","na","na","na",500,"na","na","14","na","na","na","na","na","1 2 3 4 5 6 7 8 9","na","na",42,91,460540,4,11854,0,NA
"AATCBFXQNFEX","test",7,0,"RWA","na","na","It would be best if newspapers were censored so that people would not be able to get hold of destructive and disgusting material.<br><br>Very negative 1 - 2 - 3 - 4 - 5 - 6 - 7 Very positive","na","word","na","na","na","na",500,"na","na","14","na","na","na","na","na","1 2 3 4 5 6 7 8 9","na","na",43,89,465578,1,4532,0,NA
"AATCBFXQNFEX","test",6,0,"RWA","na","na","The society needs to show openness towards people thinking differently rather than a strong leader the world is not particularly evil or dangerous.<br><br>Very negative 1 - 2 - 3 - 4 - 5 - 6 - 7 Very positive","na","word","na","na","na","na",500,"na","na","14","na","na","na","na","na","1 2 3 4 5 6 7 8 9","na","na",44,88,481035,4,14950,0,NA
"AATCBFXQNFEX","test",15,0,"RWA","na","na","If the society so wants it is the duty of every true citizen to help eliminate the evil that poisons our country from within.<br><br>Very negative 1 - 2 - 3 - 4 - 5 - 6 - 7 Very positive","na","word","na","na","na","na",500,"na","na","14","na","na","na","na","na","1 2 3 4 5 6 7 8 9","na","na",45,97,488868,5,7327,0,NA
"AATCBFXQNFEX","test",1,0,"RWA","na","na","Our country needs a powerful leader in order to destroy the radical and immoral currents prevailing in society today.<br><br>Very negative 1 - 2 - 3 - 4 - 5 - 6 - 7 Very positive","na","word","na","na","na","na",500,"na","na","14","na","na","na","na","na","1 2 3 4 5 6 7 8 9","na","na",46,83,493630,2,4253,0,NA
"AATCBFXQNFEX","test",5,0,"RWA","na","na","Gods laws about abortion pornography and marriage must be strictly followed before it is too late violations must be punished.<br><br>Very negative 1 - 2 - 3 - 4 - 5 - 6 - 7 Very positive","na","word","na","na","na","na",500,"na","na","14","na","na","na","na","na","1 2 3 4 5 6 7 8 9","na","na",47,87,499960,1,5825,0,NA
"AATCBFXQNFEX","test",12,0,"RWA","na","na","It is better to accept bad literature than to censor it.<br><br>Very negative 1 - 2 - 3 - 4 - 5 - 6 - 7 Very positive","na","word","na","na","na","na",500,"na","na","14","na","na","na","na","na","1 2 3 4 5 6 7 8 9","na","na",48,94,504019,7,3552,0,NA
"AATCBFXQNFEX","test",11,0,"RWA","na","na","There are many radical immoral people trying to ruin things the society ought to stop them.<br><br>Very negative 1 - 2 - 3 - 4 - 5 - 6 - 7 Very positive","na","word","na","na","na","na",500,"na","na","14","na","na","na","na","na","1 2 3 4 5 6 7 8 9","na","na",49,93,509951,2,5426,0,NA
"AATCBFXQNFEX","form",5,0,"SECS","na","na","na","Welfare benefits","word","1","na","na","na",500,"na","na","15","na","na","na","na","na","na","slider","0_100_5",NA,NA,521745,50,5579,0,NA
"AATCBFXQNFEX","form",8,0,"SECS","na","na","na","Traditional values","word","1","na","na","na",500,"na","na","15","na","na","na","na","na","na","slider","0_100_5",NA,NA,526650,40,4368,0,NA
"AATCBFXQNFEX","form",11,0,"SECS","na","na","na","The family unit","word","1","na","na","na",500,"na","na","15","na","na","na","na","na","na","slider","0_100_5",NA,NA,530415,60,3229,0,NA
"AATCBFXQNFEX","form",9,0,"SECS","na","na","na","Fiscal responsibility","word","1","na","na","na",500,"na","na","15","na","na","na","na","na","na","slider","0_100_5",NA,NA,535371,50,4427,0,NA
"AATCBFXQNFEX","form",7,0,"SECS","na","na","na","Traditional marriage","word","1","na","na","na",500,"na","na","15","na","na","na","na","na","na","slider","0_100_5",NA,NA,539432,50,3536,0,NA
"AATCBFXQNFEX","form",3,0,"SECS","na","na","na","Military and national security","word","1","na","na","na",500,"na","na","15","na","na","na","na","na","na","slider","0_100_5",NA,NA,543305,50,3344,0,NA
"AATCBFXQNFEX","form",1,0,"SECS","na","na","na","Abortion","word","1","na","na","na",500,"na","na","15","na","na","na","na","na","na","slider","0_100_5",NA,NA,547318,90,3487,0,NA
"AATCBFXQNFEX","form",6,0,"SECS","na","na","na","Gun ownership","word","1","na","na","na",500,"na","na","15","na","na","na","na","na","na","slider","0_100_5",NA,NA,552222,20,4377,0,NA
"AATCBFXQNFEX","form",12,0,"SECS","na","na","na","Patriotism","word","1","na","na","na",500,"na","na","15","na","na","na","na","na","na","slider","0_100_5",NA,NA,556294,50,3544,0,NA
"AATCBFXQNFEX","form",2,0,"SECS","na","na","na","Limited government","word","1","na","na","na",500,"na","na","15","na","na","na","na","na","na","slider","0_100_5",NA,NA,562635,35,5812,0,NA
"AATCBFXQNFEX","form",10,0,"SECS","na","na","na","Business","word","1","na","na","na",500,"na","na","15","na","na","na","na","na","na","slider","0_100_5",NA,NA,576304,85,13143,0,NA
"AATCBFXQNFEX","form",4,0,"SECS","na","na","na","Religion","word","1","na","na","na",500,"na","na","15","na","na","na","na","na","na","slider","0_100_5",NA,NA,579388,0,2555,0,NA
"ADMAXRXRJBLA","test",1,0,"apprentissage","na","na","Watch carefully these two families","na",".jpg","na","learn02","na","na",500,"na","na","na","na","na","na","NEXT","na","na","na","na",1,1,186234,1,28274,0,NA
"ADMAXRXRJBLA","test",11,0,"apprentissage","na","na","To which family does this character belong?","na",".jpg","na","M2","na","2",500,"na","na","1","na","Your answer is wrong","Your answer is correct","FAMILY A"," FAMILY B","na","na","na",2,11,190789,2,4034,1,NA
"ADMAXRXRJBLA","test",13,0,"apprentissage","na","na","To which family does this character belong?","na",".jpg","na","M4","na","2",500,"na","na","1","na","Your answer is wrong","Your answer is correct","FAMILY A"," FAMILY B","na","na","na",3,13,196001,2,2477,1,NA
"ADMAXRXRJBLA","test",5,0,"apprentissage","na","na","To which family does this character belong?","na",".jpg","na","B4","na","1",500,"na","na","1","na","Your answer is wrong","Your answer is correct","FAMILY A"," FAMILY B","na","na","na",4,5,200305,1,2193,1,NA
"ADMAXRXRJBLA","test",16,0,"apprentissage","na","na","To which family does this character belong?","na",".jpg","na","M6","na","2",500,"na","na","1","na","Your answer is wrong","Your answer is correct","FAMILY A"," FAMILY B","na","na","na",5,16,204158,2,1881,1,NA
"ADMAXRXRJBLA","test",10,0,"apprentissage","na","na","To which family does this character belong?","na",".jpg","na","M1","na","2",500,"na","na","1","na","Your answer is wrong","Your answer is correct","FAMILY A"," FAMILY B","na","na","na",6,10,207817,2,1765,1,NA
"ADMAXRXRJBLA","test",18,0,"apprentissage","na","na","To which family does this character belong?","na",".jpg","na","M8","na","2",500,"na","na","1","na","Your answer is wrong","Your answer is correct","FAMILY A"," FAMILY B","na","na","na",7,18,212019,2,2459,1,NA
"ADMAXRXRJBLA","test",2,0,"apprentissage","na","na","To which family does this character belong?","na",".jpg","na","B1","na","1",500,"na","na","1","na","Your answer is wrong","Your answer is correct","FAMILY A"," FAMILY B","na","na","na",8,2,215673,1,1730,1,NA
"ADMAXRXRJBLA","test",12,0,"apprentissage","na","na","To which family does this character belong?","na",".jpg","na","M3","na","2",500,"na","na","1","na","Your answer is wrong","Your answer is correct","FAMILY A"," FAMILY B","na","na","na",9,12,220442,2,1395,1,NA
"ADMAXRXRJBLA","test",7,0,"apprentissage","na","na","To which family does this character belong?","na",".jpg","na","B6","na","1",500,"na","na","1","na","Your answer is wrong","Your answer is correct","FAMILY A"," FAMILY B","na","na","na",10,7,223680,1,1280,1,NA
"ADMAXRXRJBLA","test",15,0,"apprentissage","na","na","To which family does this character belong?","na",".jpg","na","M5","na","2",500,"na","na","1","na","Your answer is wrong","Your answer is correct","FAMILY A"," FAMILY B","na","na","na",11,15,226440,2,1188,1,NA
"ADMAXRXRJBLA","test",6,0,"apprentissage","na","na","To which family does this character belong?","na",".jpg","na","B5","na","1",500,"na","na","1","na","Your answer is wrong","Your answer is correct","FAMILY A"," FAMILY B","na","na","na",12,6,229585,1,1387,1,NA
"ADMAXRXRJBLA","test",8,0,"apprentissage","na","na","To which family does this character belong?","na",".jpg","na","B7","na","1",500,"na","na","1","na","Your answer is wrong","Your answer is correct","FAMILY A"," FAMILY B","na","na","na",13,8,232739,1,1455,1,NA
"ADMAXRXRJBLA","test",9,0,"apprentissage","na","na","To which family does this character belong?","na",".jpg","na","B8","na","1",500,"na","na","1","na","Your answer is wrong","Your answer is correct","FAMILY A"," FAMILY B","na","na","na",14,9,236512,1,1553,1,NA
"ADMAXRXRJBLA","test",17,0,"apprentissage","na","na","To which family does this character belong?","na",".jpg","na","M7","na","2",500,"na","na","1","na","Your answer is wrong","Your answer is correct","FAMILY A"," FAMILY B","na","na","na",15,17,239778,2,1232,1,NA
"ADMAXRXRJBLA","test",4,0,"apprentissage","na","na","To which family does this character belong?","na",".jpg","na","B3","na","1",500,"na","na","1","na","Your answer is wrong","Your answer is correct","FAMILY A"," FAMILY B","na","na","na",16,4,243639,1,1713,1,NA
"ADMAXRXRJBLA","test",14,0,"apprentissage","na","na","To which family does this character belong?","na",".jpg","na","M5","na","2",500,"na","na","1","na","Your answer is wrong","Your answer is correct","FAMILY A"," FAMILY B","na","na","na",17,14,246725,2,1368,1,NA
"ADMAXRXRJBLA","test",3,0,"apprentissage","na","na","To which family does this character belong?","na",".jpg","na","B2","na","1",500,"na","na","1","na","Your answer is wrong","Your answer is correct","FAMILY A"," FAMILY B","na","na","na",18,3,249741,1,1448,1,NA
"ADMAXRXRJBLA","test",7,4,"ratings4","na","na","Your general feelings about this member are:<br><br>Very negatives 1 - 2 - 3 - 4 - 5 - 6 - 7 - 8 - 9 Very positives","na",".jpg","na","B7","na","na",500,"na","na","13","na","na","na","na","na","1 2 3 4 5 6 7 8 9","na","na",19,73,576310,9,16156,0,NA
"ADMAXRXRJBLA","test",4,4,"ratings4","na","na","Your general feelings about this member are:<br><br>Very negatives 1 - 2 - 3 - 4 - 5 - 6 - 7 - 8 - 9 Very positives","na",".jpg","na","B4","na","na",500,"na","na","13","na","na","na","na","na","1 2 3 4 5 6 7 8 9","na","na",20,70,582013,9,5140,0,NA
"ADMAXRXRJBLA","test",15,4,"ratings4","na","na","Your general feelings about this member are:<br><br>Very negatives 1 - 2 - 3 - 4 - 5 - 6 - 7 - 8 - 9 Very positives","na",".jpg","na","M7","na","na",500,"na","na","13","na","na","na","na","na","1 2 3 4 5 6 7 8 9","na","na",21,81,587357,1,4819,0,NA
"ADMAXRXRJBLA","test",9,4,"ratings4","na","na","Your general feelings about this member are:<br><br>Very negatives 1 - 2 - 3 - 4 - 5 - 6 - 7 - 8 - 9 Very positives","na",".jpg","na","M1","na","na",500,"na","na","13","na","na","na","na","na","1 2 3 4 5 6 7 8 9","na","na",22,75,588920,2,1050,0,NA
"ADMAXRXRJBLA","test",3,4,"ratings4","na","na","Your general feelings about this member are:<br><br>Very negatives 1 - 2 - 3 - 4 - 5 - 6 - 7 - 8 - 9 Very positives","na",".jpg","na","B3","na","na",500,"na","na","13","na","na","na","na","na","1 2 3 4 5 6 7 8 9","na","na",23,69,591789,8,2341,0,NA
"ADMAXRXRJBLA","test",13,4,"ratings4","na","na","Your general feelings about this member are:<br><br>Very negatives 1 - 2 - 3 - 4 - 5 - 6 - 7 - 8 - 9 Very positives","na",".jpg","na","M5","na","na",500,"na","na","13","na","na","na","na","na","1 2 3 4 5 6 7 8 9","na","na",24,79,595093,2,2774,0,NA
"ADMAXRXRJBLA","test",11,4,"ratings4","na","na","Your general feelings about this member are:<br><br>Very negatives 1 - 2 - 3 - 4 - 5 - 6 - 7 - 8 - 9 Very positives","na",".jpg","na","M3","na","na",500,"na","na","13","na","na","na","na","na","1 2 3 4 5 6 7 8 9","na","na",25,77,597733,2,2125,0,NA
"ADMAXRXRJBLA","test",6,4,"ratings4","na","na","Your general feelings about this member are:<br><br>Very negatives 1 - 2 - 3 - 4 - 5 - 6 - 7 - 8 - 9 Very positives","na",".jpg","na","B6","na","na",500,"na","na","13","na","na","na","na","na","1 2 3 4 5 6 7 8 9","na","na",26,72,600428,9,2166,0,NA
"ADMAXRXRJBLA","test",12,4,"ratings4","na","na","Your general feelings about this member are:<br><br>Very negatives 1 - 2 - 3 - 4 - 5 - 6 - 7 - 8 - 9 Very positives","na",".jpg","na","M4","na","na",500,"na","na","13","na","na","na","na","na","1 2 3 4 5 6 7 8 9","na","na",27,78,603773,1,2829,0,NA
"ADMAXRXRJBLA","test",2,4,"ratings4","na","na","Your general feelings about this member are:<br><br>Very negatives 1 - 2 - 3 - 4 - 5 - 6 - 7 - 8 - 9 Very positives","na",".jpg","na","B2","na","na",500,"na","na","13","na","na","na","na","na","1 2 3 4 5 6 7 8 9","na","na",28,68,606376,8,2080,0,NA
"ADMAXRXRJBLA","test",14,4,"ratings4","na","na","Your general feelings about this member are:<br><br>Very negatives 1 - 2 - 3 - 4 - 5 - 6 - 7 - 8 - 9 Very positives","na",".jpg","na","M6","na","na",500,"na","na","13","na","na","na","na","na","1 2 3 4 5 6 7 8 9","na","na",29,80,609109,3,2165,0,NA
"ADMAXRXRJBLA","test",10,4,"ratings4","na","na","Your general feelings about this member are:<br><br>Very negatives 1 - 2 - 3 - 4 - 5 - 6 - 7 - 8 - 9 Very positives","na",".jpg","na","M2","na","na",500,"na","na","13","na","na","na","na","na","1 2 3 4 5 6 7 8 9","na","na",30,76,612196,3,2563,0,NA
"ADMAXRXRJBLA","test",1,4,"ratings4","na","na","Your general feelings about this member are:<br><br>Very negatives 1 - 2 - 3 - 4 - 5 - 6 - 7 - 8 - 9 Very positives","na",".jpg","na","B1","na","na",500,"na","na","13","na","na","na","na","na","1 2 3 4 5 6 7 8 9","na","na",31,67,615284,9,2564,0,NA
"ADMAXRXRJBLA","test",16,4,"ratings4","na","na","Your general feelings about this member are:<br><br>Very negatives 1 - 2 - 3 - 4 - 5 - 6 - 7 - 8 - 9 Very positives","na",".jpg","na","M8","na","na",500,"na","na","13","na","na","na","na","na","1 2 3 4 5 6 7 8 9","na","na",32,82,619500,3,3688,0,NA
"ADMAXRXRJBLA","test",8,4,"ratings4","na","na","Your general feelings about this member are:<br><br>Very negatives 1 - 2 - 3 - 4 - 5 - 6 - 7 - 8 - 9 Very positives","na",".jpg","na","B8","na","na",500,"na","na","13","na","na","na","na","na","1 2 3 4 5 6 7 8 9","na","na",33,74,622628,8,2608,0,NA
"ADMAXRXRJBLA","test",5,4,"ratings4","na","na","Your general feelings about this member are:<br><br>Very negatives 1 - 2 - 3 - 4 - 5 - 6 - 7 - 8 - 9 Very positives","na",".jpg","na","B5","na","na",500,"na","na","13","na","na","na","na","na","1 2 3 4 5 6 7 8 9","na","na",34,71,625164,9,2004,0,NA
"ADMAXRXRJBLA","test",8,0,"RWA","na","na","Many good people challenge the state criticize the church and ignore the normal way of living.<br><br>Very negative 1 - 2 - 3 - 4 - 5 - 6 - 7 Very positive","na","word","na","na","na","na",500,"na","na","14","na","na","na","na","na","1 2 3 4 5 6 7 8 9","na","na",35,90,644524,7,10593,0,NA
"ADMAXRXRJBLA","test",12,0,"RWA","na","na","It is better to accept bad literature than to censor it.<br><br>Very negative 1 - 2 - 3 - 4 - 5 - 6 - 7 Very positive","na","word","na","na","na","na",500,"na","na","14","na","na","na","na","na","1 2 3 4 5 6 7 8 9","na","na",36,94,652429,2,7387,0,NA
"ADMAXRXRJBLA","test",6,0,"RWA","na","na","The society needs to show openness towards people thinking differently rather than a strong leader the world is not particularly evil or dangerous.<br><br>Very negative 1 - 2 - 3 - 4 - 5 - 6 - 7 Very positive","na","word","na","na","na","na",500,"na","na","14","na","na","na","na","na","1 2 3 4 5 6 7 8 9","na","na",37,88,666969,8,14018,0,NA
"ADMAXRXRJBLA","test",3,0,"RWA","na","na","The old-fashioned ways and old-fashioned values still show the best way to live.<br><br>Very negative 1 - 2 - 3 - 4 - 5 - 6 - 7 Very positive","na","word","na","na","na","na",500,"na","na","14","na","na","na","na","na","1 2 3 4 5 6 7 8 9","na","na",38,85,673852,6,6361,0,NA
"ADMAXRXRJBLA","test",15,0,"RWA","na","na","If the society so wants it is the duty of every true citizen to help eliminate the evil that poisons our country from within.<br><br>Very negative 1 - 2 - 3 - 4 - 5 - 6 - 7 Very positive","na","word","na","na","na","na",500,"na","na","14","na","na","na","na","na","1 2 3 4 5 6 7 8 9","na","na",39,97,682260,7,7891,0,NA
"ADMAXRXRJBLA","test",1,0,"RWA","na","na","Our country needs a powerful leader in order to destroy the radical and immoral currents prevailing in society today.<br><br>Very negative 1 - 2 - 3 - 4 - 5 - 6 - 7 Very positive","na","word","na","na","na","na",500,"na","na","14","na","na","na","na","na","1 2 3 4 5 6 7 8 9","na","na",40,83,687492,4,4712,0,NA
"ADMAXRXRJBLA","test",5,0,"RWA","na","na","Gods laws about abortion pornography and marriage must be strictly followed before it is too late violations must be punished.<br><br>Very negative 1 - 2 - 3 - 4 - 5 - 6 - 7 Very positive","na","word","na","na","na","na",500,"na","na","14","na","na","na","na","na","1 2 3 4 5 6 7 8 9","na","na",41,87,692648,3,4524,0,NA
"ADMAXRXRJBLA","test",2,0,"RWA","na","na","Our country needs free thinkers who will have the courage to stand up against traditional ways even if this upsets many people.<br><br>Very negative 1 - 2 - 3 - 4 - 5 - 6 - 7 Very positive","na","word","na","na","na","na",500,"na","na","14","na","na","na","na","na","1 2 3 4 5 6 7 8 9","na","na",42,84,697795,7,4627,0,NA
"ADMAXRXRJBLA","test",14,0,"RWA","na","na","The situation in the society of today would be improved if troublemakers were treated with reason and humanity.<br><br>Very negative 1 - 2 - 3 - 4 - 5 - 6 - 7 Very positive","na","word","na","na","na","na",500,"na","na","14","na","na","na","na","na","1 2 3 4 5 6 7 8 9","na","na",43,96,703900,4,5455,0,NA
"ADMAXRXRJBLA","test",10,0,"RWA","na","na","People ought to put less attention to the Bible and religion instead they ought to develop their own moral standards.<br><br>Very negative 1 - 2 - 3 - 4 - 5 - 6 - 7 Very positive","na","word","na","na","na","na",500,"na","na","14","na","na","na","na","na","1 2 3 4 5 6 7 8 9","na","na",44,92,709347,1,4933,0,NA
"ADMAXRXRJBLA","test",4,0,"RWA","na","na","Our society would be better off if we showed tolerance and understanding for untraditional values and opinions.<br><br>Very negative 1 - 2 - 3 - 4 - 5 - 6 - 7 Very positive","na","word","na","na","na","na",500,"na","na","14","na","na","na","na","na","1 2 3 4 5 6 7 8 9","na","na",45,86,717522,7,7663,0,NA
"ADMAXRXRJBLA","test",13,0,"RWA","na","na","Facts show that we have to be harder against crime and sexual immorality in order to uphold law and order.<br><br>Very negative 1 - 2 - 3 - 4 - 5 - 6 - 7 Very positive","na","word","na","na","na","na",500,"na","na","14","na","na","na","na","na","1 2 3 4 5 6 7 8 9","na","na",46,95,723851,4,5722,0,NA
"ADMAXRXRJBLA","test",7,0,"RWA","na","na","It would be best if newspapers were censored so that people would not be able to get hold of destructive and disgusting material.<br><br>Very negative 1 - 2 - 3 - 4 - 5 - 6 - 7 Very positive","na","word","na","na","na","na",500,"na","na","14","na","na","na","na","na","1 2 3 4 5 6 7 8 9","na","na",47,89,730131,1,5765,0,NA
"ADMAXRXRJBLA","test",11,0,"RWA","na","na","There are many radical immoral people trying to ruin things the society ought to stop them.<br><br>Very negative 1 - 2 - 3 - 4 - 5 - 6 - 7 Very positive","na","word","na","na","na","na",500,"na","na","14","na","na","na","na","na","1 2 3 4 5 6 7 8 9","na","na",48,93,733851,3,3197,0,NA
"ADMAXRXRJBLA","test",9,0,"RWA","na","na","Our forefathers ought to be honored more for the way they have built our society at the same time we ought to put an end to those forces destroying it.<br><br>Very negative 1 - 2 - 3 - 4 - 5 - 6 - 7 Very positive","na","word","na","na","na","na",500,"na","na","14","na","na","na","na","na","1 2 3 4 5 6 7 8 9","na","na",49,91,740547,4,6172,0,NA
"ADMAXRXRJBLA","form",1,0,"SECS","na","na","na","Abortion","word","1","na","na","na",500,"na","na","15","na","na","na","na","na","na","slider","0_100_5",NA,NA,758408,100,9103,0,NA
"ADMAXRXRJBLA","form",4,0,"SECS","na","na","na","Religion","word","1","na","na","na",500,"na","na","15","na","na","na","na","na","na","slider","0_100_5",NA,NA,764623,0,5574,0,NA
"ADMAXRXRJBLA","form",2,0,"SECS","na","na","na","Limited government","word","1","na","na","na",500,"na","na","15","na","na","na","na","na","na","slider","0_100_5",NA,NA,771791,50,6634,0,NA
"ADMAXRXRJBLA","form",9,0,"SECS","na","na","na","Fiscal responsibility","word","1","na","na","na",500,"na","na","15","na","na","na","na","na","na","slider","0_100_5",NA,NA,778782,30,6452,0,NA
"ADMAXRXRJBLA","form",5,0,"SECS","na","na","na","Welfare benefits","word","1","na","na","na",500,"na","na","15","na","na","na","na","na","na","slider","0_100_5",NA,NA,783911,80,4592,0,NA
"ADMAXRXRJBLA","form",8,0,"SECS","na","na","na","Traditional values","word","1","na","na","na",500,"na","na","15","na","na","na","na","na","na","slider","0_100_5",NA,NA,789414,75,4967,0,NA
"ADMAXRXRJBLA","form",3,0,"SECS","na","na","na","Military and national security","word","1","na","na","na",500,"na","na","15","na","na","na","na","na","na","slider","0_100_5",NA,NA,799247,100,9300,0,NA
"ADMAXRXRJBLA","form",12,0,"SECS","na","na","na","Patriotism","word","1","na","na","na",500,"na","na","15","na","na","na","na","na","na","slider","0_100_5",NA,NA,803183,90,3402,0,NA
"ADMAXRXRJBLA","form",6,0,"SECS","na","na","na","Gun ownership","word","1","na","na","na",500,"na","na","15","na","na","na","na","na","na","slider","0_100_5",NA,NA,808040,0,4307,0,NA
"ADMAXRXRJBLA","form",7,0,"SECS","na","na","na","Traditional marriage","word","1","na","na","na",500,"na","na","15","na","na","na","na","na","na","slider","0_100_5",NA,NA,812631,50,4034,0,NA
"ADMAXRXRJBLA","form",10,0,"SECS","na","na","na","Business","word","1","na","na","na",500,"na","na","15","na","na","na","na","na","na","slider","0_100_5",NA,NA,817070,15,3903,0,NA
"ADMAXRXRJBLA","form",11,0,"SECS","na","na","na","The family unit","word","1","na","na","na",500,"na","na","15","na","na","na","na","na","na","slider","0_100_5",NA,NA,821949,75,4353,0,NA
"AEKQHJYODCUS","test",1,0,"apprentissage","na","na","Watch carefully these two families","na",".jpg","na","learn02","na","na",500,"na","na","na","na","na","na","NEXT","na","na","na","na",1,1,111860,1,18870,0,NA
"AEKQHJYODCUS","test",13,0,"apprentissage","na","na","To which family does this character belong?","na",".jpg","na","M4","na","2",500,"na","na","1","na","Your answer is wrong","Your answer is correct","FAMILY A"," FAMILY B","na","na","na",2,13,115005,2,2626,1,NA
"AEKQHJYODCUS","test",7,0,"apprentissage","na","na","To which family does this character belong?","na",".jpg","na","B6","na","1",500,"na","na","1","na","Your answer is wrong","Your answer is correct","FAMILY A"," FAMILY B","na","na","na",3,7,120402,1,2592,1,NA
"AEKQHJYODCUS","test",17,0,"apprentissage","na","na","To which family does this character belong?","na",".jpg","na","M7","na","2",500,"na","na","1","na","Your answer is wrong","Your answer is correct","FAMILY A"," FAMILY B","na","na","na",4,17,126947,2,2607,1,NA
"AEKQHJYODCUS","test",15,0,"apprentissage","na","na","To which family does this character belong?","na",".jpg","na","M5","na","2",500,"na","na","1","na","Your answer is wrong","Your answer is correct","FAMILY A"," FAMILY B","na","na","na",5,15,131529,2,2042,1,NA
"AEKQHJYODCUS","test",10,0,"apprentissage","na","na","To which family does this character belong?","na",".jpg","na","M1","na","2",500,"na","na","1","na","Your answer is wrong","Your answer is correct","FAMILY A"," FAMILY B","na","na","na",6,10,136404,2,2230,1,NA
"AEKQHJYODCUS","test",5,0,"apprentissage","na","na","To which family does this character belong?","na",".jpg","na","B4","na","1",500,"na","na","1","na","Your answer is wrong","Your answer is correct","FAMILY A"," FAMILY B","na","na","na",7,5,140612,1,2012,1,NA
"AEKQHJYODCUS","test",2,0,"apprentissage","na","na","To which family does this character belong?","na",".jpg","na","B1","na","1",500,"na","na","1","na","Your answer is wrong","Your answer is correct","FAMILY A"," FAMILY B","na","na","na",8,2,145516,1,2517,1,NA
"AEKQHJYODCUS","test",11,0,"apprentissage","na","na","To which family does this character belong?","na",".jpg","na","M2","na","2",500,"na","na","1","na","Your answer is wrong","Your answer is correct","FAMILY A"," FAMILY B","na","na","na",9,11,150622,2,2692,1,NA
"AEKQHJYODCUS","test",18,0,"apprentissage","na","na","To which family does this character belong?","na",".jpg","na","M8","na","2",500,"na","na","1","na","Your answer is wrong","Your answer is correct","FAMILY A"," FAMILY B","na","na","na",10,18,154820,2,1828,1,NA
"AEKQHJYODCUS","test",3,0,"apprentissage","na","na","To which family does this character belong?","na",".jpg","na","B2","na","1",500,"na","na","1","na","Your answer is wrong","Your answer is correct","FAMILY A"," FAMILY B","na","na","na",11,3,158983,1,2191,1,NA
"AEKQHJYODCUS","test",16,0,"apprentissage","na","na","To which family does this character belong?","na",".jpg","na","M6","na","2",500,"na","na","1","na","Your answer is wrong","Your answer is correct","FAMILY A"," FAMILY B","na","na","na",12,16,163089,2,1861,1,NA
"AEKQHJYODCUS","test",4,0,"apprentissage","na","na","To which family does this character belong?","na",".jpg","na","B3","na","1",500,"na","na","1","na","Your answer is wrong","Your answer is correct","FAMILY A"," FAMILY B","na","na","na",13,4,167387,1,1967,1,NA
"AEKQHJYODCUS","test",8,0,"apprentissage","na","na","To which family does this character belong?","na",".jpg","na","B7","na","1",500,"na","na","1","na","Your answer is wrong","Your answer is correct","FAMILY A"," FAMILY B","na","na","na",14,8,171362,1,1793,1,NA
"AEKQHJYODCUS","test",12,0,"apprentissage","na","na","To which family does this character belong?","na",".jpg","na","M3","na","2",500,"na","na","1","na","Your answer is wrong","Your answer is correct","FAMILY A"," FAMILY B","na","na","na",15,12,175353,2,1884,1,NA
"AEKQHJYODCUS","test",9,0,"apprentissage","na","na","To which family does this character belong?","na",".jpg","na","B8","na","1",500,"na","na","1","na","Your answer is wrong","Your answer is correct","FAMILY A"," FAMILY B","na","na","na",16,9,179548,2,1945,0,NA
"AEKQHJYODCUS","test",6,0,"apprentissage","na","na","To which family does this character belong?","na",".jpg","na","B5","na","1",500,"na","na","1","na","Your answer is wrong","Your answer is correct","FAMILY A"," FAMILY B","na","na","na",17,6,184879,1,2530,1,NA
"AEKQHJYODCUS","test",14,0,"apprentissage","na","na","To which family does this character belong?","na",".jpg","na","M5","na","2",500,"na","na","1","na","Your answer is wrong","Your answer is correct","FAMILY A"," FAMILY B","na","na","na",18,14,189470,2,2076,1,NA
"AEKQHJYODCUS","test",16,3,"ratings3","na","na","Your general feelings about this member are:<br><br>Very negatives 1 - 2 - 3 - 4 - 5 - 6 - 7 - 8 - 9 Very positives","na",".jpg","na","M8","na","na",500,"na","na","11","na","na","na","na","na","1 2 3 4 5 6 7 8 9","na","na",19,50,508955,4,10021,0,NA
"AEKQHJYODCUS","test",14,3,"ratings3","na","na","Your general feelings about this member are:<br><br>Very negatives 1 - 2 - 3 - 4 - 5 - 6 - 7 - 8 - 9 Very positives","na",".jpg","na","M6","na","na",500,"na","na","11","na","na","na","na","na","1 2 3 4 5 6 7 8 9","na","na",20,48,515410,5,5916,0,NA
"AEKQHJYODCUS","test",2,3,"ratings3","na","na","Your general feelings about this member are:<br><br>Very negatives 1 - 2 - 3 - 4 - 5 - 6 - 7 - 8 - 9 Very positives","na",".jpg","na","B2","na","na",500,"na","na","11","na","na","na","na","na","1 2 3 4 5 6 7 8 9","na","na",21,36,519684,7,3727,0,NA
"AEKQHJYODCUS","test",15,3,"ratings3","na","na","Your general feelings about this member are:<br><br>Very negatives 1 - 2 - 3 - 4 - 5 - 6 - 7 - 8 - 9 Very positives","na",".jpg","na","M7","na","na",500,"na","na","11","na","na","na","na","na","1 2 3 4 5 6 7 8 9","na","na",22,49,524223,4,4002,0,NA
"AEKQHJYODCUS","test",1,3,"ratings3","na","na","Your general feelings about this member are:<br><br>Very negatives 1 - 2 - 3 - 4 - 5 - 6 - 7 - 8 - 9 Very positives","na",".jpg","na","B1","na","na",500,"na","na","11","na","na","na","na","na","1 2 3 4 5 6 7 8 9","na","na",23,35,529187,8,4434,0,NA
"AEKQHJYODCUS","test",12,3,"ratings3","na","na","Your general feelings about this member are:<br><br>Very negatives 1 - 2 - 3 - 4 - 5 - 6 - 7 - 8 - 9 Very positives","na",".jpg","na","M4","na","na",500,"na","na","11","na","na","na","na","na","1 2 3 4 5 6 7 8 9","na","na",24,46,533341,4,3607,0,NA
"AEKQHJYODCUS","test",5,3,"ratings3","na","na","Your general feelings about this member are:<br><br>Very negatives 1 - 2 - 3 - 4 - 5 - 6 - 7 - 8 - 9 Very positives","na",".jpg","na","B5","na","na",500,"na","na","11","na","na","na","na","na","1 2 3 4 5 6 7 8 9","na","na",25,39,536943,8,3075,0,NA
"AEKQHJYODCUS","test",4,3,"ratings3","na","na","Your general feelings about this member are:<br><br>Very negatives 1 - 2 - 3 - 4 - 5 - 6 - 7 - 8 - 9 Very positives","na",".jpg","na","B4","na","na",500,"na","na","11","na","na","na","na","na","1 2 3 4 5 6 7 8 9","na","na",26,38,539367,7,1885,0,NA
"AEKQHJYODCUS","test",6,3,"ratings3","na","na","Your general feelings about this member are:<br><br>Very negatives 1 - 2 - 3 - 4 - 5 - 6 - 7 - 8 - 9 Very positives","na",".jpg","na","B6","na","na",500,"na","na","11","na","na","na","na","na","1 2 3 4 5 6 7 8 9","na","na",27,40,543702,4,3799,0,NA
"AEKQHJYODCUS","test",11,3,"ratings3","na","na","Your general feelings about this member are:<br><br>Very negatives 1 - 2 - 3 - 4 - 5 - 6 - 7 - 8 - 9 Very positives","na",".jpg","na","M3","na","na",500,"na","na","11","na","na","na","na","na","1 2 3 4 5 6 7 8 9","na","na",28,45,548637,4,4399,0,NA
"AEKQHJYODCUS","test",8,3,"ratings3","na","na","Your general feelings about this member are:<br><br>Very negatives 1 - 2 - 3 - 4 - 5 - 6 - 7 - 8 - 9 Very positives","na",".jpg","na","B8","na","na",500,"na","na","11","na","na","na","na","na","1 2 3 4 5 6 7 8 9","na","na",29,42,551343,3,2178,0,NA
"AEKQHJYODCUS","test",10,3,"ratings3","na","na","Your general feelings about this member are:<br><br>Very negatives 1 - 2 - 3 - 4 - 5 - 6 - 7 - 8 - 9 Very positives","na",".jpg","na","M2","na","na",500,"na","na","11","na","na","na","na","na","1 2 3 4 5 6 7 8 9","na","na",30,44,555116,3,3239,0,NA
"AEKQHJYODCUS","test",9,3,"ratings3","na","na","Your general feelings about this member are:<br><br>Very negatives 1 - 2 - 3 - 4 - 5 - 6 - 7 - 8 - 9 Very positives","na",".jpg","na","M1","na","na",500,"na","na","11","na","na","na","na","na","1 2 3 4 5 6 7 8 9","na","na",31,43,557024,4,1382,0,NA
"AEKQHJYODCUS","test",7,3,"ratings3","na","na","Your general feelings about this member are:<br><br>Very negatives 1 - 2 - 3 - 4 - 5 - 6 - 7 - 8 - 9 Very positives","na",".jpg","na","B7","na","na",500,"na","na","11","na","na","na","na","na","1 2 3 4 5 6 7 8 9","na","na",32,41,559157,7,1598,0,NA
"AEKQHJYODCUS","test",13,3,"ratings3","na","na","Your general feelings about this member are:<br><br>Very negatives 1 - 2 - 3 - 4 - 5 - 6 - 7 - 8 - 9 Very positives","na",".jpg","na","M5","na","na",500,"na","na","11","na","na","na","na","na","1 2 3 4 5 6 7 8 9","na","na",33,47,564043,4,4350,0,NA
"AEKQHJYODCUS","test",3,3,"ratings3","na","na","Your general feelings about this member are:<br><br>Very negatives 1 - 2 - 3 - 4 - 5 - 6 - 7 - 8 - 9 Very positives","na",".jpg","na","B3","na","na",500,"na","na","11","na","na","na","na","na","1 2 3 4 5 6 7 8 9","na","na",34,37,568811,7,4236,0,NA
"AEKQHJYODCUS","test",5,0,"RWA","na","na","Gods laws about abortion pornography and marriage must be strictly followed before it is too late violations must be punished.<br><br>Very negative 1 - 2 - 3 - 4 - 5 - 6 - 7 Very positive","na","word","na","na","na","na",500,"na","na","14","na","na","na","na","na","1 2 3 4 5 6 7 8 9","na","na",35,87,590659,4,13676,0,NA
"AEKQHJYODCUS","test",14,0,"RWA","na","na","The situation in the society of today would be improved if troublemakers were treated with reason and humanity.<br><br>Very negative 1 - 2 - 3 - 4 - 5 - 6 - 7 Very positive","na","word","na","na","na","na",500,"na","na","14","na","na","na","na","na","1 2 3 4 5 6 7 8 9","na","na",36,96,598310,2,7101,0,NA
"AEKQHJYODCUS","test",11,0,"RWA","na","na","There are many radical immoral people trying to ruin things the society ought to stop them.<br><br>Very negative 1 - 2 - 3 - 4 - 5 - 6 - 7 Very positive","na","word","na","na","na","na",500,"na","na","14","na","na","na","na","na","1 2 3 4 5 6 7 8 9","na","na",37,93,607564,7,8726,0,NA
"AEKQHJYODCUS","test",7,0,"RWA","na","na","It would be best if newspapers were censored so that people would not be able to get hold of destructive and disgusting material.<br><br>Very negative 1 - 2 - 3 - 4 - 5 - 6 - 7 Very positive","na","word","na","na","na","na",500,"na","na","14","na","na","na","na","na","1 2 3 4 5 6 7 8 9","na","na",38,89,614118,4,6017,0,NA
"AEKQHJYODCUS","test",9,0,"RWA","na","na","Our forefathers ought to be honored more for the way they have built our society at the same time we ought to put an end to those forces destroying it.<br><br>Very negative 1 - 2 - 3 - 4 - 5 - 6 - 7 Very positive","na","word","na","na","na","na",500,"na","na","14","na","na","na","na","na","1 2 3 4 5 6 7 8 9","na","na",39,91,623178,6,8528,0,NA
"AEKQHJYODCUS","test",6,0,"RWA","na","na","The society needs to show openness towards people thinking differently rather than a strong leader the world is not particularly evil or dangerous.<br><br>Very negative 1 - 2 - 3 - 4 - 5 - 6 - 7 Very positive","na","word","na","na","na","na",500,"na","na","14","na","na","na","na","na","1 2 3 4 5 6 7 8 9","na","na",40,88,633852,5,10135,0,NA
"AEKQHJYODCUS","test",3,0,"RWA","na","na","The old-fashioned ways and old-fashioned values still show the best way to live.<br><br>Very negative 1 - 2 - 3 - 4 - 5 - 6 - 7 Very positive","na","word","na","na","na","na",500,"na","na","14","na","na","na","na","na","1 2 3 4 5 6 7 8 9","na","na",41,85,639535,6,5160,0,NA
"AEKQHJYODCUS","test",4,0,"RWA","na","na","Our society would be better off if we showed tolerance and understanding for untraditional values and opinions.<br><br>Very negative 1 - 2 - 3 - 4 - 5 - 6 - 7 Very positive","na","word","na","na","na","na",500,"na","na","14","na","na","na","na","na","1 2 3 4 5 6 7 8 9","na","na",42,86,646075,6,6004,0,NA
"AEKQHJYODCUS","test",8,0,"RWA","na","na","Many good people challenge the state criticize the church and ignore the normal way of living.<br><br>Very negative 1 - 2 - 3 - 4 - 5 - 6 - 7 Very positive","na","word","na","na","na","na",500,"na","na","14","na","na","na","na","na","1 2 3 4 5 6 7 8 9","na","na",43,90,655610,4,9007,0,NA
"AEKQHJYODCUS","test",15,0,"RWA","na","na","If the society so wants it is the duty of every true citizen to help eliminate the evil that poisons our country from within.<br><br>Very negative 1 - 2 - 3 - 4 - 5 - 6 - 7 Very positive","na","word","na","na","na","na",500,"na","na","14","na","na","na","na","na","1 2 3 4 5 6 7 8 9","na","na",44,97,668089,6,11957,0,NA
"AEKQHJYODCUS","test",13,0,"RWA","na","na","Facts show that we have to be harder against crime and sexual immorality in order to uphold law and order.<br><br>Very negative 1 - 2 - 3 - 4 - 5 - 6 - 7 Very positive","na","word","na","na","na","na",500,"na","na","14","na","na","na","na","na","1 2 3 4 5 6 7 8 9","na","na",45,95,675112,7,6487,0,NA
"AEKQHJYODCUS","test",1,0,"RWA","na","na","Our country needs a powerful leader in order to destroy the radical and immoral currents prevailing in society today.<br><br>Very negative 1 - 2 - 3 - 4 - 5 - 6 - 7 Very positive","na","word","na","na","na","na",500,"na","na","14","na","na","na","na","na","1 2 3 4 5 6 7 8 9","na","na",46,83,680808,6,5168,0,NA
"AEKQHJYODCUS","test",2,0,"RWA","na","na","Our country needs free thinkers who will have the courage to stand up against traditional ways even if this upsets many people.<br><br>Very negative 1 - 2 - 3 - 4 - 5 - 6 - 7 Very positive","na","word","na","na","na","na",500,"na","na","14","na","na","na","na","na","1 2 3 4 5 6 7 8 9","na","na",47,84,685996,7,4658,0,NA
"AEKQHJYODCUS","test",12,0,"RWA","na","na","It is better to accept bad literature than to censor it.<br><br>Very negative 1 - 2 - 3 - 4 - 5 - 6 - 7 Very positive","na","word","na","na","na","na",500,"na","na","14","na","na","na","na","na","1 2 3 4 5 6 7 8 9","na","na",48,94,694543,3,8024,0,NA
"AEKQHJYODCUS","test",10,0,"RWA","na","na","People ought to put less attention to the Bible and religion instead they ought to develop their own moral standards.<br><br>Very negative 1 - 2 - 3 - 4 - 5 - 6 - 7 Very positive","na","word","na","na","na","na",500,"na","na","14","na","na","na","na","na","1 2 3 4 5 6 7 8 9","na","na",49,92,703188,6,8123,0,NA
"AEKQHJYODCUS","form",7,0,"SECS","na","na","na","Traditional marriage","word","1","na","na","na",500,"na","na","15","na","na","na","na","na","na","slider","0_100_5",NA,NA,719340,60,7693,0,NA
"AEKQHJYODCUS","form",5,0,"SECS","na","na","na","Welfare benefits","word","1","na","na","na",500,"na","na","15","na","na","na","na","na","na","slider","0_100_5",NA,NA,725983,15,6069,0,NA
"AEKQHJYODCUS","form",9,0,"SECS","na","na","na","Fiscal responsibility","word","1","na","na","na",500,"na","na","15","na","na","na","na","na","na","slider","0_100_5",NA,NA,735134,70,8570,0,NA
"AEKQHJYODCUS","form",11,0,"SECS","na","na","na","The family unit","word","1","na","na","na",500,"na","na","15","na","na","na","na","na","na","slider","0_100_5",NA,NA,741304,80,5605,0,NA
"AEKQHJYODCUS","form",6,0,"SECS","na","na","na","Gun ownership","word","1","na","na","na",500,"na","na","15","na","na","na","na","na","na","slider","0_100_5",NA,NA,747395,5,5518,0,NA
"AEKQHJYODCUS","form",10,0,"SECS","na","na","na","Business","word","1","na","na","na",500,"na","na","15","na","na","na","na","na","na","slider","0_100_5",NA,NA,752424,75,4462,0,NA
"AEKQHJYODCUS","form",2,0,"SECS","na","na","na","Limited government","word","1","na","na","na",500,"na","na","15","na","na","na","na","na","na","slider","0_100_5",NA,NA,759616,50,6609,0,NA
"AEKQHJYODCUS","form",12,0,"SECS","na","na","na","Patriotism","word","1","na","na","na",500,"na","na","15","na","na","na","na","na","na","slider","0_100_5",NA,NA,765964,95,5769,0,NA
"AEKQHJYODCUS","form",4,0,"SECS","na","na","na","Religion","word","1","na","na","na",500,"na","na","15","na","na","na","na","na","na","slider","0_100_5",NA,NA,772616,65,6081,0,NA
"AEKQHJYODCUS","form",3,0,"SECS","na","na","na","Military and national security","word","1","na","na","na",500,"na","na","15","na","na","na","na","na","na","slider","0_100_5",NA,NA,777941,100,4753,0,NA
"AEKQHJYODCUS","form",1,0,"SECS","na","na","na","Abortion","word","1","na","na","na",500,"na","na","15","na","na","na","na","na","na","slider","0_100_5",NA,NA,782598,30,4095,0,NA
"AEKQHJYODCUS","form",8,0,"SECS","na","na","na","Traditional values","word","1","na","na","na",500,"na","na","15","na","na","na","na","na","na","slider","0_100_5",NA,NA,787407,80,4248,0,NA
"AFKHDCIVDBAB","test",1,0,"apprentissage","na","na","Watch carefully these two families","na",".jpg","na","learn02","na","na",500,"na","na","na","na","na","na","NEXT","na","na","na","na",1,1,266201,1,36821,0,NA
"AFKHDCIVDBAB","test",11,0,"apprentissage","na","na","To which family does this character belong?","na",".jpg","na","M2","na","2",500,"na","na","1","na","Your answer is wrong","Your answer is correct","FAMILY A"," FAMILY B","na","na","na",2,11,269584,2,2862,1,NA
"AFKHDCIVDBAB","test",4,0,"apprentissage","na","na","To which family does this character belong?","na",".jpg","na","B3","na","1",500,"na","na","1","na","Your answer is wrong","Your answer is correct","FAMILY A"," FAMILY B","na","na","na",3,4,273862,1,2051,1,NA
"AFKHDCIVDBAB","test",12,0,"apprentissage","na","na","To which family does this character belong?","na",".jpg","na","M3","na","2",500,"na","na","1","na","Your answer is wrong","Your answer is correct","FAMILY A"," FAMILY B","na","na","na",4,12,280522,2,1759,1,NA
"AFKHDCIVDBAB","test",9,0,"apprentissage","na","na","To which family does this character belong?","na",".jpg","na","B8","na","1",500,"na","na","1","na","Your answer is wrong","Your answer is correct","FAMILY A"," FAMILY B","na","na","na",5,9,287731,1,1481,1,NA
"AFKHDCIVDBAB","test",16,0,"apprentissage","na","na","To which family does this character belong?","na",".jpg","na","M6","na","2",500,"na","na","1","na","Your answer is wrong","Your answer is correct","FAMILY A"," FAMILY B","na","na","na",6,16,291745,2,1717,1,NA
"AFKHDCIVDBAB","test",14,0,"apprentissage","na","na","To which family does this character belong?","na",".jpg","na","M5","na","2",500,"na","na","1","na","Your answer is wrong","Your answer is correct","FAMILY A"," FAMILY B","na","na","na",7,14,295340,2,1564,1,NA
"AFKHDCIVDBAB","test",3,0,"apprentissage","na","na","To which family does this character belong?","na",".jpg","na","B2","na","1",500,"na","na","1","na","Your answer is wrong","Your answer is correct","FAMILY A"," FAMILY B","na","na","na",8,3,299887,1,1673,1,NA
"AFKHDCIVDBAB","test",2,0,"apprentissage","na","na","To which family does this character belong?","na",".jpg","na","B1","na","1",500,"na","na","1","na","Your answer is wrong","Your answer is correct","FAMILY A"," FAMILY B","na","na","na",9,2,303540,1,1751,1,NA
"AFKHDCIVDBAB","test",18,0,"apprentissage","na","na","To which family does this character belong?","na",".jpg","na","M8","na","2",500,"na","na","1","na","Your answer is wrong","Your answer is correct","FAMILY A"," FAMILY B","na","na","na",10,18,306969,2,1687,1,NA
"AFKHDCIVDBAB","test",17,0,"apprentissage","na","na","To which family does this character belong?","na",".jpg","na","M7","na","2",500,"na","na","1","na","Your answer is wrong","Your answer is correct","FAMILY A"," FAMILY B","na","na","na",11,17,312688,1,1776,0,NA
"AFKHDCIVDBAB","test",7,0,"apprentissage","na","na","To which family does this character belong?","na",".jpg","na","B6","na","1",500,"na","na","1","na","Your answer is wrong","Your answer is correct","FAMILY A"," FAMILY B","na","na","na",12,7,318130,2,1682,0,NA
"AFKHDCIVDBAB","test",5,0,"apprentissage","na","na","To which family does this character belong?","na",".jpg","na","B4","na","1",500,"na","na","1","na","Your answer is wrong","Your answer is correct","FAMILY A"," FAMILY B","na","na","na",13,5,323484,1,1310,1,NA
"AFKHDCIVDBAB","test",6,0,"apprentissage","na","na","To which family does this character belong?","na",".jpg","na","B5","na","1",500,"na","na","1","na","Your answer is wrong","Your answer is correct","FAMILY A"," FAMILY B","na","na","na",14,6,328089,1,1309,1,NA
"AFKHDCIVDBAB","test",8,0,"apprentissage","na","na","To which family does this character belong?","na",".jpg","na","B7","na","1",500,"na","na","1","na","Your answer is wrong","Your answer is correct","FAMILY A"," FAMILY B","na","na","na",15,8,332531,2,2268,0,NA
"AFKHDCIVDBAB","test",10,0,"apprentissage","na","na","To which family does this character belong?","na",".jpg","na","M1","na","2",500,"na","na","1","na","Your answer is wrong","Your answer is correct","FAMILY A"," FAMILY B","na","na","na",16,10,337334,2,1428,1,NA
"AFKHDCIVDBAB","test",13,0,"apprentissage","na","na","To which family does this character belong?","na",".jpg","na","M4","na","2",500,"na","na","1","na","Your answer is wrong","Your answer is correct","FAMILY A"," FAMILY B","na","na","na",17,13,341369,2,1028,1,NA
"AFKHDCIVDBAB","test",15,0,"apprentissage","na","na","To which family does this character belong?","na",".jpg","na","M5","na","2",500,"na","na","1","na","Your answer is wrong","Your answer is correct","FAMILY A"," FAMILY B","na","na","na",18,15,345814,2,1782,1,NA
"AFKHDCIVDBAB","test",4,2,"ratings2","na","na","Your general feelings about this member are:<br><br>Very negative 1 - 2 - 3 - 4 - 5 - 6 - 7 - 8 - 9 Very positive","na",".jpg","na","B4","na","na",500,"na","na","12","na","na","na","na","na","1 2 3 4 5 6 7 8 9","na","na",19,54,567759,1,7250,0,NA
"AFKHDCIVDBAB","test",7,2,"ratings2","na","na","Your general feelings about this member are:<br><br>Very negative 1 - 2 - 3 - 4 - 5 - 6 - 7 - 8 - 9 Very positive","na",".jpg","na","B7","na","na",500,"na","na","12","na","na","na","na","na","1 2 3 4 5 6 7 8 9","na","na",20,57,569757,1,1483,0,NA
"AFKHDCIVDBAB","test",16,2,"ratings2","na","na","Your general feelings about this member are:<br><br>Very negative 1 - 2 - 3 - 4 - 5 - 6 - 7 - 8 - 9 Very positive","na",".jpg","na","M8","na","na",500,"na","na","12","na","na","na","na","na","1 2 3 4 5 6 7 8 9","na","na",21,66,573406,9,3116,0,NA
"AFKHDCIVDBAB","test",11,2,"ratings2","na","na","Your general feelings about this member are:<br><br>Very negative 1 - 2 - 3 - 4 - 5 - 6 - 7 - 8 - 9 Very positive","na",".jpg","na","M3","na","na",500,"na","na","12","na","na","na","na","na","1 2 3 4 5 6 7 8 9","na","na",22,61,575090,9,1155,0,NA
"AFKHDCIVDBAB","test",2,2,"ratings2","na","na","Your general feelings about this member are:<br><br>Very negative 1 - 2 - 3 - 4 - 5 - 6 - 7 - 8 - 9 Very positive","na",".jpg","na","B2","na","na",500,"na","na","12","na","na","na","na","na","1 2 3 4 5 6 7 8 9","na","na",23,52,576345,1,717,0,NA
"AFKHDCIVDBAB","test",13,2,"ratings2","na","na","Your general feelings about this member are:<br><br>Very negative 1 - 2 - 3 - 4 - 5 - 6 - 7 - 8 - 9 Very positive","na",".jpg","na","M5","na","na",500,"na","na","12","na","na","na","na","na","1 2 3 4 5 6 7 8 9","na","na",24,63,577475,9,604,0,NA
"AFKHDCIVDBAB","test",3,2,"ratings2","na","na","Your general feelings about this member are:<br><br>Very negative 1 - 2 - 3 - 4 - 5 - 6 - 7 - 8 - 9 Very positive","na",".jpg","na","B3","na","na",500,"na","na","12","na","na","na","na","na","1 2 3 4 5 6 7 8 9","na","na",25,53,578453,1,441,0,NA
"AFKHDCIVDBAB","test",15,2,"ratings2","na","na","Your general feelings about this member are:<br><br>Very negative 1 - 2 - 3 - 4 - 5 - 6 - 7 - 8 - 9 Very positive","na",".jpg","na","M7","na","na",500,"na","na","12","na","na","na","na","na","1 2 3 4 5 6 7 8 9","na","na",26,65,579729,9,756,0,NA
"AFKHDCIVDBAB","test",6,2,"ratings2","na","na","Your general feelings about this member are:<br><br>Very negative 1 - 2 - 3 - 4 - 5 - 6 - 7 - 8 - 9 Very positive","na",".jpg","na","B6","na","na",500,"na","na","12","na","na","na","na","na","1 2 3 4 5 6 7 8 9","na","na",27,56,581300,9,998,0,NA
"AFKHDCIVDBAB","test",10,2,"ratings2","na","na","Your general feelings about this member are:<br><br>Very negative 1 - 2 - 3 - 4 - 5 - 6 - 7 - 8 - 9 Very positive","na",".jpg","na","M2","na","na",500,"na","na","12","na","na","na","na","na","1 2 3 4 5 6 7 8 9","na","na",28,60,582749,9,917,0,NA
"AFKHDCIVDBAB","test",12,2,"ratings2","na","na","Your general feelings about this member are:<br><br>Very negative 1 - 2 - 3 - 4 - 5 - 6 - 7 - 8 - 9 Very positive","na",".jpg","na","M4","na","na",500,"na","na","12","na","na","na","na","na","1 2 3 4 5 6 7 8 9","na","na",29,62,584004,9,734,0,NA
"AFKHDCIVDBAB","test",14,2,"ratings2","na","na","Your general feelings about this member are:<br><br>Very negative 1 - 2 - 3 - 4 - 5 - 6 - 7 - 8 - 9 Very positive","na",".jpg","na","M6","na","na",500,"na","na","12","na","na","na","na","na","1 2 3 4 5 6 7 8 9","na","na",30,64,585521,9,993,0,NA
"AFKHDCIVDBAB","test",1,2,"ratings2","na","na","Your general feelings about this member are:<br><br>Very negative 1 - 2 - 3 - 4 - 5 - 6 - 7 - 8 - 9 Very positive","na",".jpg","na","B1","na","na",500,"na","na","12","na","na","na","na","na","1 2 3 4 5 6 7 8 9","na","na",31,51,587003,1,951,0,NA
"AFKHDCIVDBAB","test",8,2,"ratings2","na","na","Your general feelings about this member are:<br><br>Very negative 1 - 2 - 3 - 4 - 5 - 6 - 7 - 8 - 9 Very positive","na",".jpg","na","B8","na","na",500,"na","na","12","na","na","na","na","na","1 2 3 4 5 6 7 8 9","na","na",32,58,588491,1,962,0,NA
"AFKHDCIVDBAB","test",9,2,"ratings2","na","na","Your general feelings about this member are:<br><br>Very negative 1 - 2 - 3 - 4 - 5 - 6 - 7 - 8 - 9 Very positive","na",".jpg","na","M1","na","na",500,"na","na","12","na","na","na","na","na","1 2 3 4 5 6 7 8 9","na","na",33,59,589660,9,638,0,NA
"AFKHDCIVDBAB","test",5,2,"ratings2","na","na","Your general feelings about this member are:<br><br>Very negative 1 - 2 - 3 - 4 - 5 - 6 - 7 - 8 - 9 Very positive","na",".jpg","na","B5","na","na",500,"na","na","12","na","na","na","na","na","1 2 3 4 5 6 7 8 9","na","na",34,55,590940,1,745,0,NA
"AFKHDCIVDBAB","test",2,0,"RWA","na","na","Our country needs free thinkers who will have the courage to stand up against traditional ways even if this upsets many people.<br><br>Very negative 1 - 2 - 3 - 4 - 5 - 6 - 7 Very positive","na","word","na","na","na","na",500,"na","na","14","na","na","na","na","na","1 2 3 4 5 6 7 8 9","na","na",35,84,608329,5,8794,0,NA
"AFKHDCIVDBAB","test",1,0,"RWA","na","na","Our country needs a powerful leader in order to destroy the radical and immoral currents prevailing in society today.<br><br>Very negative 1 - 2 - 3 - 4 - 5 - 6 - 7 Very positive","na","word","na","na","na","na",500,"na","na","14","na","na","na","na","na","1 2 3 4 5 6 7 8 9","na","na",36,83,614366,2,5515,0,NA
"AFKHDCIVDBAB","test",12,0,"RWA","na","na","It is better to accept bad literature than to censor it.<br><br>Very negative 1 - 2 - 3 - 4 - 5 - 6 - 7 Very positive","na","word","na","na","na","na",500,"na","na","14","na","na","na","na","na","1 2 3 4 5 6 7 8 9","na","na",37,94,619821,6,4926,0,NA
"AFKHDCIVDBAB","test",7,0,"RWA","na","na","It would be best if newspapers were censored so that people would not be able to get hold of destructive and disgusting material.<br><br>Very negative 1 - 2 - 3 - 4 - 5 - 6 - 7 Very positive","na","word","na","na","na","na",500,"na","na","14","na","na","na","na","na","1 2 3 4 5 6 7 8 9","na","na",38,89,624381,2,4040,0,NA
"AFKHDCIVDBAB","test",3,0,"RWA","na","na","The old-fashioned ways and old-fashioned values still show the best way to live.<br><br>Very negative 1 - 2 - 3 - 4 - 5 - 6 - 7 Very positive","na","word","na","na","na","na",500,"na","na","14","na","na","na","na","na","1 2 3 4 5 6 7 8 9","na","na",39,85,628963,3,4046,0,NA
"AFKHDCIVDBAB","test",13,0,"RWA","na","na","Facts show that we have to be harder against crime and sexual immorality in order to uphold law and order.<br><br>Very negative 1 - 2 - 3 - 4 - 5 - 6 - 7 Very positive","na","word","na","na","na","na",500,"na","na","14","na","na","na","na","na","1 2 3 4 5 6 7 8 9","na","na",40,95,633596,5,4099,0,NA
"AFKHDCIVDBAB","test",4,0,"RWA","na","na","Our society would be better off if we showed tolerance and understanding for untraditional values and opinions.<br><br>Very negative 1 - 2 - 3 - 4 - 5 - 6 - 7 Very positive","na","word","na","na","na","na",500,"na","na","14","na","na","na","na","na","1 2 3 4 5 6 7 8 9","na","na",41,86,637547,3,3432,0,NA
"AFKHDCIVDBAB","test",8,0,"RWA","na","na","Many good people challenge the state criticize the church and ignore the normal way of living.<br><br>Very negative 1 - 2 - 3 - 4 - 5 - 6 - 7 Very positive","na","word","na","na","na","na",500,"na","na","14","na","na","na","na","na","1 2 3 4 5 6 7 8 9","na","na",42,90,648217,6,10150,0,NA
"AFKHDCIVDBAB","test",14,0,"RWA","na","na","The situation in the society of today would be improved if troublemakers were treated with reason and humanity.<br><br>Very negative 1 - 2 - 3 - 4 - 5 - 6 - 7 Very positive","na","word","na","na","na","na",500,"na","na","14","na","na","na","na","na","1 2 3 4 5 6 7 8 9","na","na",43,96,652248,2,3493,0,NA
"AFKHDCIVDBAB","test",15,0,"RWA","na","na","If the society so wants it is the duty of every true citizen to help eliminate the evil that poisons our country from within.<br><br>Very negative 1 - 2 - 3 - 4 - 5 - 6 - 7 Very positive","na","word","na","na","na","na",500,"na","na","14","na","na","na","na","na","1 2 3 4 5 6 7 8 9","na","na",44,97,659279,4,6502,0,NA
"AFKHDCIVDBAB","test",9,0,"RWA","na","na","Our forefathers ought to be honored more for the way they have built our society at the same time we ought to put an end to those forces destroying it.<br><br>Very negative 1 - 2 - 3 - 4 - 5 - 6 - 7 Very positive","na","word","na","na","na","na",500,"na","na","14","na","na","na","na","na","1 2 3 4 5 6 7 8 9","na","na",45,91,663793,6,3976,0,NA
"AFKHDCIVDBAB","test",5,0,"RWA","na","na","Gods laws about abortion pornography and marriage must be strictly followed before it is too late violations must be punished.<br><br>Very negative 1 - 2 - 3 - 4 - 5 - 6 - 7 Very positive","na","word","na","na","na","na",500,"na","na","14","na","na","na","na","na","1 2 3 4 5 6 7 8 9","na","na",46,87,668879,1,4564,0,NA
"AFKHDCIVDBAB","test",10,0,"RWA","na","na","People ought to put less attention to the Bible and religion instead they ought to develop their own moral standards.<br><br>Very negative 1 - 2 - 3 - 4 - 5 - 6 - 7 Very positive","na","word","na","na","na","na",500,"na","na","14","na","na","na","na","na","1 2 3 4 5 6 7 8 9","na","na",47,92,673061,9,3655,0,NA
"AFKHDCIVDBAB","test",11,0,"RWA","na","na","There are many radical immoral people trying to ruin things the society ought to stop them.<br><br>Very negative 1 - 2 - 3 - 4 - 5 - 6 - 7 Very positive","na","word","na","na","na","na",500,"na","na","14","na","na","na","na","na","1 2 3 4 5 6 7 8 9","na","na",48,93,682699,4,9113,0,NA
"AFKHDCIVDBAB","test",6,0,"RWA","na","na","The society needs to show openness towards people thinking differently rather than a strong leader the world is not particularly evil or dangerous.<br><br>Very negative 1 - 2 - 3 - 4 - 5 - 6 - 7 Very positive","na","word","na","na","na","na",500,"na","na","14","na","na","na","na","na","1 2 3 4 5 6 7 8 9","na","na",49,88,693846,2,10624,0,NA
"AFKHDCIVDBAB","form",2,0,"SECS","na","na","na","Limited government","word","1","na","na","na",500,"na","na","15","na","na","na","na","na","na","slider","0_100_5",NA,NA,709513,45,8675,0,NA
"AFKHDCIVDBAB","form",10,0,"SECS","na","na","na","Business","word","1","na","na","na",500,"na","na","15","na","na","na","na","na","na","slider","0_100_5",NA,NA,714124,55,4057,0,NA
"AFKHDCIVDBAB","form",5,0,"SECS","na","na","na","Welfare benefits","word","1","na","na","na",500,"na","na","15","na","na","na","na","na","na","slider","0_100_5",NA,NA,726788,60,12108,0,NA
"AFKHDCIVDBAB","form",11,0,"SECS","na","na","na","The family unit","word","1","na","na","na",500,"na","na","15","na","na","na","na","na","na","slider","0_100_5",NA,NA,731302,100,3977,0,NA
"AFKHDCIVDBAB","form",6,0,"SECS","na","na","na","Gun ownership","word","1","na","na","na",500,"na","na","15","na","na","na","na","na","na","slider","0_100_5",NA,NA,735682,75,3834,0,NA
"AFKHDCIVDBAB","form",4,0,"SECS","na","na","na","Religion","word","1","na","na","na",500,"na","na","15","na","na","na","na","na","na","slider","0_100_5",NA,NA,738379,0,2040,0,NA
"AFKHDCIVDBAB","form",8,0,"SECS","na","na","na","Traditional values","word","1","na","na","na",500,"na","na","15","na","na","na","na","na","na","slider","0_100_5",NA,NA,744271,55,5324,0,NA
"AFKHDCIVDBAB","form",3,0,"SECS","na","na","na","Military and national security","word","1","na","na","na",500,"na","na","15","na","na","na","na","na","na","slider","0_100_5",NA,NA,748504,100,3678,0,NA
"AFKHDCIVDBAB","form",7,0,"SECS","na","na","na","Traditional marriage","word","1","na","na","na",500,"na","na","15","na","na","na","na","na","na","slider","0_100_5",NA,NA,755823,100,6763,0,NA
"AFKHDCIVDBAB","form",12,0,"SECS","na","na","na","Patriotism","word","1","na","na","na",500,"na","na","15","na","na","na","na","na","na","slider","0_100_5",NA,NA,760363,100,4008,0,NA
"AFKHDCIVDBAB","form",1,0,"SECS","na","na","na","Abortion","word","1","na","na","na",500,"na","na","15","na","na","na","na","na","na","slider","0_100_5",NA,NA,764424,50,3509,0,NA
"AFKHDCIVDBAB","form",9,0,"SECS","na","na","na","Fiscal responsibility","word","1","na","na","na",500,"na","na","15","na","na","na","na","na","na","slider","0_100_5",NA,NA,767646,70,2654,0,NA
"AGMXXHHMMUQL","test",1,0,"apprentissage","na","na","Watch carefully these two families","na",".jpg","na","learn02","na","na",500,"na","na","na","na","na","na","NEXT","na","na","na","na",1,1,139998,1,35710,0,NA
"AGMXXHHMMUQL","test",5,0,"apprentissage","na","na","To which family does this character belong?","na",".jpg","na","B4","na","1",500,"na","na","1","na","Your answer is wrong","Your answer is correct","FAMILY A"," FAMILY B","na","na","na",2,5,143729,1,3213,1,NA
"AGMXXHHMMUQL","test",9,0,"apprentissage","na","na","To which family does this character belong?","na",".jpg","na","B8","na","1",500,"na","na","1","na","Your answer is wrong","Your answer is correct","FAMILY A"," FAMILY B","na","na","na",3,9,147442,1,1367,1,NA
"AGMXXHHMMUQL","test",10,0,"apprentissage","na","na","To which family does this character belong?","na",".jpg","na","M1","na","2",500,"na","na","1","na","Your answer is wrong","Your answer is correct","FAMILY A"," FAMILY B","na","na","na",4,10,150268,2,1224,1,NA
"AGMXXHHMMUQL","test",4,0,"apprentissage","na","na","To which family does this character belong?","na",".jpg","na","B3","na","1",500,"na","na","1","na","Your answer is wrong","Your answer is correct","FAMILY A"," FAMILY B","na","na","na",5,4,152811,1,1096,1,NA
"AGMXXHHMMUQL","test",6,0,"apprentissage","na","na","To which family does this character belong?","na",".jpg","na","B5","na","1",500,"na","na","1","na","Your answer is wrong","Your answer is correct","FAMILY A"," FAMILY B","na","na","na",6,6,155489,1,1198,1,NA
"AGMXXHHMMUQL","test",8,0,"apprentissage","na","na","To which family does this character belong?","na",".jpg","na","B7","na","1",500,"na","na","1","na","Your answer is wrong","Your answer is correct","FAMILY A"," FAMILY B","na","na","na",7,8,159507,1,2153,1,NA
"AGMXXHHMMUQL","test",3,0,"apprentissage","na","na","To which family does this character belong?","na",".jpg","na","B2","na","1",500,"na","na","1","na","Your answer is wrong","Your answer is correct","FAMILY A"," FAMILY B","na","na","na",8,3,163454,1,2222,1,NA
"AGMXXHHMMUQL","test",2,0,"apprentissage","na","na","To which family does this character belong?","na",".jpg","na","B1","na","1",500,"na","na","1","na","Your answer is wrong","Your answer is correct","FAMILY A"," FAMILY B","na","na","na",9,2,166422,1,1414,1,NA
"AGMXXHHMMUQL","test",7,0,"apprentissage","na","na","To which family does this character belong?","na",".jpg","na","B6","na","1",500,"na","na","1","na","Your answer is wrong","Your answer is correct","FAMILY A"," FAMILY B","na","na","na",10,7,169542,1,1468,1,NA
"AGMXXHHMMUQL","test",17,0,"apprentissage","na","na","To which family does this character belong?","na",".jpg","na","M7","na","2",500,"na","na","1","na","Your answer is wrong","Your answer is correct","FAMILY A"," FAMILY B","na","na","na",11,17,172257,2,1263,1,NA
"AGMXXHHMMUQL","test",14,0,"apprentissage","na","na","To which family does this character belong?","na",".jpg","na","M5","na","2",500,"na","na","1","na","Your answer is wrong","Your answer is correct","FAMILY A"," FAMILY B","na","na","na",12,14,174653,2,1055,1,NA
"AGMXXHHMMUQL","test",16,0,"apprentissage","na","na","To which family does this character belong?","na",".jpg","na","M6","na","2",500,"na","na","1","na","Your answer is wrong","Your answer is correct","FAMILY A"," FAMILY B","na","na","na",13,16,177490,2,1460,1,NA
"AGMXXHHMMUQL","test",18,0,"apprentissage","na","na","To which family does this character belong?","na",".jpg","na","M8","na","2",500,"na","na","1","na","Your answer is wrong","Your answer is correct","FAMILY A"," FAMILY B","na","na","na",14,18,180155,2,1202,1,NA
"AGMXXHHMMUQL","test",13,0,"apprentissage","na","na","To which family does this character belong?","na",".jpg","na","M4","na","2",500,"na","na","1","na","Your answer is wrong","Your answer is correct","FAMILY A"," FAMILY B","na","na","na",15,13,182961,2,1250,1,NA
"AGMXXHHMMUQL","test",15,0,"apprentissage","na","na","To which family does this character belong?","na",".jpg","na","M5","na","2",500,"na","na","1","na","Your answer is wrong","Your answer is correct","FAMILY A"," FAMILY B","na","na","na",16,15,186459,2,1534,1,NA
"AGMXXHHMMUQL","test",11,0,"apprentissage","na","na","To which family does this character belong?","na",".jpg","na","M2","na","2",500,"na","na","1","na","Your answer is wrong","Your answer is correct","FAMILY A"," FAMILY B","na","na","na",17,11,188920,2,957,1,NA
"AGMXXHHMMUQL","test",12,0,"apprentissage","na","na","To which family does this character belong?","na",".jpg","na","M3","na","2",500,"na","na","1","na","Your answer is wrong","Your answer is correct","FAMILY A"," FAMILY B","na","na","na",18,12,191520,2,1194,1,NA
"AGMXXHHMMUQL","test",2,4,"ratings4","na","na","Your general feelings about this member are:<br><br>Very negatives 1 - 2 - 3 - 4 - 5 - 6 - 7 - 8 - 9 Very positives","na",".jpg","na","B2","na","na",500,"na","na","13","na","na","na","na","na","1 2 3 4 5 6 7 8 9","na","na",19,68,503287,3,7065,0,NA
"AGMXXHHMMUQL","test",16,4,"ratings4","na","na","Your general feelings about this member are:<br><br>Very negatives 1 - 2 - 3 - 4 - 5 - 6 - 7 - 8 - 9 Very positives","na",".jpg","na","M8","na","na",500,"na","na","13","na","na","na","na","na","1 2 3 4 5 6 7 8 9","na","na",20,82,506517,4,2712,0,NA
"AGMXXHHMMUQL","test",8,4,"ratings4","na","na","Your general feelings about this member are:<br><br>Very negatives 1 - 2 - 3 - 4 - 5 - 6 - 7 - 8 - 9 Very positives","na",".jpg","na","B8","na","na",500,"na","na","13","na","na","na","na","na","1 2 3 4 5 6 7 8 9","na","na",21,74,508199,3,1167,0,NA
"AGMXXHHMMUQL","test",7,4,"ratings4","na","na","Your general feelings about this member are:<br><br>Very negatives 1 - 2 - 3 - 4 - 5 - 6 - 7 - 8 - 9 Very positives","na",".jpg","na","B7","na","na",500,"na","na","13","na","na","na","na","na","1 2 3 4 5 6 7 8 9","na","na",22,73,510886,3,2168,0,NA
"AGMXXHHMMUQL","test",3,4,"ratings4","na","na","Your general feelings about this member are:<br><br>Very negatives 1 - 2 - 3 - 4 - 5 - 6 - 7 - 8 - 9 Very positives","na",".jpg","na","B3","na","na",500,"na","na","13","na","na","na","na","na","1 2 3 4 5 6 7 8 9","na","na",23,69,513101,3,1696,0,NA
"AGMXXHHMMUQL","test",13,4,"ratings4","na","na","Your general feelings about this member are:<br><br>Very negatives 1 - 2 - 3 - 4 - 5 - 6 - 7 - 8 - 9 Very positives","na",".jpg","na","M5","na","na",500,"na","na","13","na","na","na","na","na","1 2 3 4 5 6 7 8 9","na","na",24,79,515412,4,1792,0,NA
"AGMXXHHMMUQL","test",4,4,"ratings4","na","na","Your general feelings about this member are:<br><br>Very negatives 1 - 2 - 3 - 4 - 5 - 6 - 7 - 8 - 9 Very positives","na",".jpg","na","B4","na","na",500,"na","na","13","na","na","na","na","na","1 2 3 4 5 6 7 8 9","na","na",25,70,517900,4,1969,0,NA
"AGMXXHHMMUQL","test",11,4,"ratings4","na","na","Your general feelings about this member are:<br><br>Very negatives 1 - 2 - 3 - 4 - 5 - 6 - 7 - 8 - 9 Very positives","na",".jpg","na","M3","na","na",500,"na","na","13","na","na","na","na","na","1 2 3 4 5 6 7 8 9","na","na",26,77,519809,4,1390,0,NA
"AGMXXHHMMUQL","test",1,4,"ratings4","na","na","Your general feelings about this member are:<br><br>Very negatives 1 - 2 - 3 - 4 - 5 - 6 - 7 - 8 - 9 Very positives","na",".jpg","na","B1","na","na",500,"na","na","13","na","na","na","na","na","1 2 3 4 5 6 7 8 9","na","na",27,67,522826,5,2497,0,NA
"AGMXXHHMMUQL","test",5,4,"ratings4","na","na","Your general feelings about this member are:<br><br>Very negatives 1 - 2 - 3 - 4 - 5 - 6 - 7 - 8 - 9 Very positives","na",".jpg","na","B5","na","na",500,"na","na","13","na","na","na","na","na","1 2 3 4 5 6 7 8 9","na","na",28,71,524538,4,1194,0,NA
"AGMXXHHMMUQL","test",6,4,"ratings4","na","na","Your general feelings about this member are:<br><br>Very negatives 1 - 2 - 3 - 4 - 5 - 6 - 7 - 8 - 9 Very positives","na",".jpg","na","B6","na","na",500,"na","na","13","na","na","na","na","na","1 2 3 4 5 6 7 8 9","na","na",29,72,526461,5,1404,0,NA
"AGMXXHHMMUQL","test",12,4,"ratings4","na","na","Your general feelings about this member are:<br><br>Very negatives 1 - 2 - 3 - 4 - 5 - 6 - 7 - 8 - 9 Very positives","na",".jpg","na","M4","na","na",500,"na","na","13","na","na","na","na","na","1 2 3 4 5 6 7 8 9","na","na",30,78,528839,4,1862,0,NA
"AGMXXHHMMUQL","test",14,4,"ratings4","na","na","Your general feelings about this member are:<br><br>Very negatives 1 - 2 - 3 - 4 - 5 - 6 - 7 - 8 - 9 Very positives","na",".jpg","na","M6","na","na",500,"na","na","13","na","na","na","na","na","1 2 3 4 5 6 7 8 9","na","na",31,80,531005,4,1650,0,NA
"AGMXXHHMMUQL","test",9,4,"ratings4","na","na","Your general feelings about this member are:<br><br>Very negatives 1 - 2 - 3 - 4 - 5 - 6 - 7 - 8 - 9 Very positives","na",".jpg","na","M1","na","na",500,"na","na","13","na","na","na","na","na","1 2 3 4 5 6 7 8 9","na","na",32,75,532607,3,1084,0,NA
"AGMXXHHMMUQL","test",15,4,"ratings4","na","na","Your general feelings about this member are:<br><br>Very negatives 1 - 2 - 3 - 4 - 5 - 6 - 7 - 8 - 9 Very positives","na",".jpg","na","M7","na","na",500,"na","na","13","na","na","na","na","na","1 2 3 4 5 6 7 8 9","na","na",33,81,534144,4,1017,0,NA
"AGMXXHHMMUQL","test",10,4,"ratings4","na","na","Your general feelings about this member are:<br><br>Very negatives 1 - 2 - 3 - 4 - 5 - 6 - 7 - 8 - 9 Very positives","na",".jpg","na","M2","na","na",500,"na","na","13","na","na","na","na","na","1 2 3 4 5 6 7 8 9","na","na",34,76,535718,4,1053,0,NA
"AGMXXHHMMUQL","test",13,0,"RWA","na","na","Facts show that we have to be harder against crime and sexual immorality in order to uphold law and order.<br><br>Very negative 1 - 2 - 3 - 4 - 5 - 6 - 7 Very positive","na","word","na","na","na","na",500,"na","na","14","na","na","na","na","na","1 2 3 4 5 6 7 8 9","na","na",35,95,552439,3,9113,0,NA
"AGMXXHHMMUQL","test",2,0,"RWA","na","na","Our country needs free thinkers who will have the courage to stand up against traditional ways even if this upsets many people.<br><br>Very negative 1 - 2 - 3 - 4 - 5 - 6 - 7 Very positive","na","word","na","na","na","na",500,"na","na","14","na","na","na","na","na","1 2 3 4 5 6 7 8 9","na","na",36,84,556640,5,3685,0,NA
"AGMXXHHMMUQL","test",14,0,"RWA","na","na","The situation in the society of today would be improved if troublemakers were treated with reason and humanity.<br><br>Very negative 1 - 2 - 3 - 4 - 5 - 6 - 7 Very positive","na","word","na","na","na","na",500,"na","na","14","na","na","na","na","na","1 2 3 4 5 6 7 8 9","na","na",37,96,562343,3,5189,0,NA
"AGMXXHHMMUQL","test",5,0,"RWA","na","na","Gods laws about abortion pornography and marriage must be strictly followed before it is too late violations must be punished.<br><br>Very negative 1 - 2 - 3 - 4 - 5 - 6 - 7 Very positive","na","word","na","na","na","na",500,"na","na","14","na","na","na","na","na","1 2 3 4 5 6 7 8 9","na","na",38,87,567377,2,4519,0,NA
"AGMXXHHMMUQL","test",1,0,"RWA","na","na","Our country needs a powerful leader in order to destroy the radical and immoral currents prevailing in society today.<br><br>Very negative 1 - 2 - 3 - 4 - 5 - 6 - 7 Very positive","na","word","na","na","na","na",500,"na","na","14","na","na","na","na","na","1 2 3 4 5 6 7 8 9","na","na",39,83,572683,4,4792,0,NA
"AGMXXHHMMUQL","test",15,0,"RWA","na","na","If the society so wants it is the duty of every true citizen to help eliminate the evil that poisons our country from within.<br><br>Very negative 1 - 2 - 3 - 4 - 5 - 6 - 7 Very positive","na","word","na","na","na","na",500,"na","na","14","na","na","na","na","na","1 2 3 4 5 6 7 8 9","na","na",40,97,582289,5,9091,0,NA
"AGMXXHHMMUQL","test",9,0,"RWA","na","na","Our forefathers ought to be honored more for the way they have built our society at the same time we ought to put an end to those forces destroying it.<br><br>Very negative 1 - 2 - 3 - 4 - 5 - 6 - 7 Very positive","na","word","na","na","na","na",500,"na","na","14","na","na","na","na","na","1 2 3 4 5 6 7 8 9","na","na",41,91,587102,5,4299,0,NA
"AGMXXHHMMUQL","test",12,0,"RWA","na","na","It is better to accept bad literature than to censor it.<br><br>Very negative 1 - 2 - 3 - 4 - 5 - 6 - 7 Very positive","na","word","na","na","na","na",500,"na","na","14","na","na","na","na","na","1 2 3 4 5 6 7 8 9","na","na",42,94,592695,6,5076,0,NA
"AGMXXHHMMUQL","test",10,0,"RWA","na","na","People ought to put less attention to the Bible and religion instead they ought to develop their own moral standards.<br><br>Very negative 1 - 2 - 3 - 4 - 5 - 6 - 7 Very positive","na","word","na","na","na","na",500,"na","na","14","na","na","na","na","na","1 2 3 4 5 6 7 8 9","na","na",43,92,599101,6,5890,0,NA
"AGMXXHHMMUQL","test",8,0,"RWA","na","na","Many good people challenge the state criticize the church and ignore the normal way of living.<br><br>Very negative 1 - 2 - 3 - 4 - 5 - 6 - 7 Very positive","na","word","na","na","na","na",500,"na","na","14","na","na","na","na","na","1 2 3 4 5 6 7 8 9","na","na",44,90,605774,7,6155,0,NA
"AGMXXHHMMUQL","test",7,0,"RWA","na","na","It would be best if newspapers were censored so that people would not be able to get hold of destructive and disgusting material.<br><br>Very negative 1 - 2 - 3 - 4 - 5 - 6 - 7 Very positive","na","word","na","na","na","na",500,"na","na","14","na","na","na","na","na","1 2 3 4 5 6 7 8 9","na","na",45,89,611275,7,4986,0,NA
"AGMXXHHMMUQL","test",11,0,"RWA","na","na","There are many radical immoral people trying to ruin things the society ought to stop them.<br><br>Very negative 1 - 2 - 3 - 4 - 5 - 6 - 7 Very positive","na","word","na","na","na","na",500,"na","na","14","na","na","na","na","na","1 2 3 4 5 6 7 8 9","na","na",46,93,616352,6,4561,0,NA
"AGMXXHHMMUQL","test",6,0,"RWA","na","na","The society needs to show openness towards people thinking differently rather than a strong leader the world is not particularly evil or dangerous.<br><br>Very negative 1 - 2 - 3 - 4 - 5 - 6 - 7 Very positive","na","word","na","na","na","na",500,"na","na","14","na","na","na","na","na","1 2 3 4 5 6 7 8 9","na","na",47,88,623405,8,6512,0,NA
"AGMXXHHMMUQL","test",4,0,"RWA","na","na","Our society would be better off if we showed tolerance and understanding for untraditional values and opinions.<br><br>Very negative 1 - 2 - 3 - 4 - 5 - 6 - 7 Very positive","na","word","na","na","na","na",500,"na","na","14","na","na","na","na","na","1 2 3 4 5 6 7 8 9","na","na",48,86,630185,6,6265,0,NA
"AGMXXHHMMUQL","test",3,0,"RWA","na","na","The old-fashioned ways and old-fashioned values still show the best way to live.<br><br>Very negative 1 - 2 - 3 - 4 - 5 - 6 - 7 Very positive","na","word","na","na","na","na",500,"na","na","14","na","na","na","na","na","1 2 3 4 5 6 7 8 9","na","na",49,85,635494,7,4794,0,NA
"AGMXXHHMMUQL","form",1,0,"SECS","na","na","na","Abortion","word","1","na","na","na",500,"na","na","15","na","na","na","na","na","na","slider","0_100_5",NA,NA,651151,50,5996,0,NA
"AGMXXHHMMUQL","form",11,0,"SECS","na","na","na","The family unit","word","1","na","na","na",500,"na","na","15","na","na","na","na","na","na","slider","0_100_5",NA,NA,655192,90,3482,0,NA
