"ppt","type","trialNo","subjectGroup","condition1","title","content","trialText","head","stimFormat","pageBreak","stim1","stim2","key","ITI","ISI","presTime","random","randomBlock","feedbackIncorrect","feedbackCorrect","button1","button2","keyboard","responseType","responseOptions","orderPres","orderFile","timestamp","response","RT","correct","responseCode"
"ADHVGUSBXWCI","test",1,0,"apprentissage","na","na","Watch carefully these two families","na",".jpg","na","learn02","na","na","500","na","na","na",0,"na","na","NEXT","na","na","na","na",1,1,110607,"1",25870,0,NA
"ADHVGUSBXWCI","test",18,0,"apprentissage","na","na","To which family does this character belong?","na",".jpg","na","M8","na","2","500","na","na","1",0,"Your answer is wrong","Your answer is correct","FAMILY A"," FAMILY B","na","na","na",2,18,113506,"2",2392,1,NA
"ADHVGUSBXWCI","test",10,0,"apprentissage","na","na","To which family does this character belong?","na",".jpg","na","M1","na","2","500","na","na","1",0,"Your answer is wrong","Your answer is correct","FAMILY A"," FAMILY B","na","na","na",3,10,116880,"2",1551,1,NA
"ADHVGUSBXWCI","test",4,0,"apprentissage","na","na","To which family does this character belong?","na",".jpg","na","B3","na","1","500","na","na","1",0,"Your answer is wrong","Your answer is correct","FAMILY A"," FAMILY B","na","na","na",4,4,119233,"1",994,1,NA
"ADHVGUSBXWCI","test",17,0,"apprentissage","na","na","To which family does this character belong?","na",".jpg","na","M7","na","2","500","na","na","1",0,"Your answer is wrong","Your answer is correct","FAMILY A"," FAMILY B","na","na","na",5,17,121720,"2",1099,1,NA
"ADHVGUSBXWCI","test",2,0,"apprentissage","na","na","To which family does this character belong?","na",".jpg","na","B1","na","1","500","na","na","1",0,"Your answer is wrong","Your answer is correct","FAMILY A"," FAMILY B","na","na","na",6,2,124702,"1",1698,1,NA
"ADHVGUSBXWCI","test",15,0,"apprentissage","na","na","To which family does this character belong?","na",".jpg","na","M5","na","2","500","na","na","1",0,"Your answer is wrong","Your answer is correct","FAMILY A"," FAMILY B","na","na","na",7,15,127063,"2",1055,1,NA
"ADHVGUSBXWCI","test",3,0,"apprentissage","na","na","To which family does this character belong?","na",".jpg","na","B2","na","1","500","na","na","1",0,"Your answer is wrong","Your answer is correct","FAMILY A"," FAMILY B","na","na","na",8,3,129494,"1",1103,1,NA
"ADHVGUSBXWCI","test",7,0,"apprentissage","na","na","To which family does this character belong?","na",".jpg","na","B6","na","1","500","na","na","1",0,"Your answer is wrong","Your answer is correct","FAMILY A"," FAMILY B","na","na","na",9,7,132588,"2",1844,0,NA
"ADHVGUSBXWCI","test",12,0,"apprentissage","na","na","To which family does this character belong?","na",".jpg","na","M3","na","2","500","na","na","1",0,"Your answer is wrong","Your answer is correct","FAMILY A"," FAMILY B","na","na","na",10,12,135040,"2",932,1,NA
"ADHVGUSBXWCI","test",13,0,"apprentissage","na","na","To which family does this character belong?","na",".jpg","na","M4","na","2","500","na","na","1",0,"Your answer is wrong","Your answer is correct","FAMILY A"," FAMILY B","na","na","na",11,13,137278,"2",1021,1,NA
"ADHVGUSBXWCI","test",8,0,"apprentissage","na","na","To which family does this character belong?","na",".jpg","na","B7","na","1","500","na","na","1",0,"Your answer is wrong","Your answer is correct","FAMILY A"," FAMILY B","na","na","na",12,8,139348,"1",899,1,NA
"ADHVGUSBXWCI","test",9,0,"apprentissage","na","na","To which family does this character belong?","na",".jpg","na","B8","na","1","500","na","na","1",0,"Your answer is wrong","Your answer is correct","FAMILY A"," FAMILY B","na","na","na",13,9,142048,"1",1481,1,NA
"ADHVGUSBXWCI","test",14,0,"apprentissage","na","na","To which family does this character belong?","na",".jpg","na","M5","na","2","500","na","na","1",0,"Your answer is wrong","Your answer is correct","FAMILY A"," FAMILY B","na","na","na",14,14,144164,"2",898,1,NA
"ADHVGUSBXWCI","test",5,0,"apprentissage","na","na","To which family does this character belong?","na",".jpg","na","B4","na","1","500","na","na","1",0,"Your answer is wrong","Your answer is correct","FAMILY A"," FAMILY B","na","na","na",15,5,146334,"1",951,1,NA
"ADHVGUSBXWCI","test",11,0,"apprentissage","na","na","To which family does this character belong?","na",".jpg","na","M2","na","2","500","na","na","1",0,"Your answer is wrong","Your answer is correct","FAMILY A"," FAMILY B","na","na","na",16,11,148868,"2",1268,1,NA
"ADHVGUSBXWCI","test",6,0,"apprentissage","na","na","To which family does this character belong?","na",".jpg","na","B5","na","1","500","na","na","1",0,"Your answer is wrong","Your answer is correct","FAMILY A"," FAMILY B","na","na","na",17,6,151399,"1",930,1,NA
"ADHVGUSBXWCI","test",16,0,"apprentissage","na","na","To which family does this character belong?","na",".jpg","na","M6","na","2","500","na","na","1",0,"Your answer is wrong","Your answer is correct","FAMILY A"," FAMILY B","na","na","na",18,16,153591,"2",937,1,NA
"ADHVGUSBXWCI","test",4,3,"ratings3","na","na","Your general feelings about this member are:<br><br>Very negatives 1 - 2 - 3 - 4 - 5 - 6 - 7 - 8 - 9 Very positives","na",".jpg","na","B4","na","na","500","na","na","11",0,"na","na","na","na","1 2 3 4 5 6 7 8 9","na","na",19,54,363250,"5",7445,0,NA
"ADHVGUSBXWCI","test",12,3,"ratings3","na","na","Your general feelings about this member are:<br><br>Very negatives 1 - 2 - 3 - 4 - 5 - 6 - 7 - 8 - 9 Very positives","na",".jpg","na","M4","na","na","500","na","na","11",0,"na","na","na","na","1 2 3 4 5 6 7 8 9","na","na",20,62,367730,"6",3975,0,NA
"ADHVGUSBXWCI","test",7,3,"ratings3","na","na","Your general feelings about this member are:<br><br>Very negatives 1 - 2 - 3 - 4 - 5 - 6 - 7 - 8 - 9 Very positives","na",".jpg","na","B7","na","na","500","na","na","11",0,"na","na","na","na","1 2 3 4 5 6 7 8 9","na","na",21,57,370251,"4",2012,0,NA
"ADHVGUSBXWCI","test",10,3,"ratings3","na","na","Your general feelings about this member are:<br><br>Very negatives 1 - 2 - 3 - 4 - 5 - 6 - 7 - 8 - 9 Very positives","na",".jpg","na","M2","na","na","500","na","na","11",0,"na","na","na","na","1 2 3 4 5 6 7 8 9","na","na",22,60,372234,"6",1474,0,NA
"ADHVGUSBXWCI","test",8,3,"ratings3","na","na","Your general feelings about this member are:<br><br>Very negatives 1 - 2 - 3 - 4 - 5 - 6 - 7 - 8 - 9 Very positives","na",".jpg","na","B8","na","na","500","na","na","11",0,"na","na","na","na","1 2 3 4 5 6 7 8 9","na","na",23,58,375690,"5",2948,0,NA
"ADHVGUSBXWCI","test",9,3,"ratings3","na","na","Your general feelings about this member are:<br><br>Very negatives 1 - 2 - 3 - 4 - 5 - 6 - 7 - 8 - 9 Very positives","na",".jpg","na","M1","na","na","500","na","na","11",0,"na","na","na","na","1 2 3 4 5 6 7 8 9","na","na",24,59,377963,"7",1764,0,NA
"ADHVGUSBXWCI","test",11,3,"ratings3","na","na","Your general feelings about this member are:<br><br>Very negatives 1 - 2 - 3 - 4 - 5 - 6 - 7 - 8 - 9 Very positives","na",".jpg","na","M3","na","na","500","na","na","11",0,"na","na","na","na","1 2 3 4 5 6 7 8 9","na","na",25,61,379522,"7",1051,0,NA
"ADHVGUSBXWCI","test",16,3,"ratings3","na","na","Your general feelings about this member are:<br><br>Very negatives 1 - 2 - 3 - 4 - 5 - 6 - 7 - 8 - 9 Very positives","na",".jpg","na","M8","na","na","500","na","na","11",0,"na","na","na","na","1 2 3 4 5 6 7 8 9","na","na",26,66,381066,"6",1039,0,NA
"ADHVGUSBXWCI","test",3,3,"ratings3","na","na","Your general feelings about this member are:<br><br>Very negatives 1 - 2 - 3 - 4 - 5 - 6 - 7 - 8 - 9 Very positives","na",".jpg","na","B3","na","na","500","na","na","11",0,"na","na","na","na","1 2 3 4 5 6 7 8 9","na","na",27,53,383098,"4",1523,0,NA
"ADHVGUSBXWCI","test",2,3,"ratings3","na","na","Your general feelings about this member are:<br><br>Very negatives 1 - 2 - 3 - 4 - 5 - 6 - 7 - 8 - 9 Very positives","na",".jpg","na","B2","na","na","500","na","na","11",0,"na","na","na","na","1 2 3 4 5 6 7 8 9","na","na",28,52,385538,"5",1934,0,NA
"ADHVGUSBXWCI","test",5,3,"ratings3","na","na","Your general feelings about this member are:<br><br>Very negatives 1 - 2 - 3 - 4 - 5 - 6 - 7 - 8 - 9 Very positives","na",".jpg","na","B5","na","na","500","na","na","11",0,"na","na","na","na","1 2 3 4 5 6 7 8 9","na","na",29,55,387538,"4",1494,0,NA
"ADHVGUSBXWCI","test",15,3,"ratings3","na","na","Your general feelings about this member are:<br><br>Very negatives 1 - 2 - 3 - 4 - 5 - 6 - 7 - 8 - 9 Very positives","na",".jpg","na","M7","na","na","500","na","na","11",0,"na","na","na","na","1 2 3 4 5 6 7 8 9","na","na",30,65,388979,"6",937,0,NA
"ADHVGUSBXWCI","test",14,3,"ratings3","na","na","Your general feelings about this member are:<br><br>Very negatives 1 - 2 - 3 - 4 - 5 - 6 - 7 - 8 - 9 Very positives","na",".jpg","na","M6","na","na","500","na","na","11",0,"na","na","na","na","1 2 3 4 5 6 7 8 9","na","na",31,64,390738,"6",1251,0,NA
"ADHVGUSBXWCI","test",1,3,"ratings3","na","na","Your general feelings about this member are:<br><br>Very negatives 1 - 2 - 3 - 4 - 5 - 6 - 7 - 8 - 9 Very positives","na",".jpg","na","B1","na","na","500","na","na","11",0,"na","na","na","na","1 2 3 4 5 6 7 8 9","na","na",32,51,393130,"5",1886,0,NA
"ADHVGUSBXWCI","test",6,3,"ratings3","na","na","Your general feelings about this member are:<br><br>Very negatives 1 - 2 - 3 - 4 - 5 - 6 - 7 - 8 - 9 Very positives","na",".jpg","na","B6","na","na","500","na","na","11",0,"na","na","na","na","1 2 3 4 5 6 7 8 9","na","na",33,56,394938,"5",1303,0,NA
"ADHVGUSBXWCI","test",13,3,"ratings3","na","na","Your general feelings about this member are:<br><br>Very negatives 1 - 2 - 3 - 4 - 5 - 6 - 7 - 8 - 9 Very positives","na",".jpg","na","M5","na","na","500","na","na","11",0,"na","na","na","na","1 2 3 4 5 6 7 8 9","na","na",34,63,396314,"7",870,0,NA
"ADHVGUSBXWCI","test",5,3,"affectivemisattributionprocedure3","na","na","This word is:<br><br>negative press u ; positive press p","na",".bmp","na","Mask","na","na","na","na","na","na",1,"na","na","na","na","u p ","na","na",35,75,419122,"p",570,0,NA
"ADHVGUSBXWCI","test",5,3,"affectivemisattributionprocedure3","na","na","This word is:<br><br>negative press u ; positive press p","na",".bmp","na","Mask","na","na","na","na","na","na",5,"na","na","na","na","u p ","na","na",36,71,420947,"p",429,0,NA
"ADHVGUSBXWCI","test",5,3,"affectivemisattributionprocedure3","na","na","This word is:<br><br>negative press u ; positive press p","na",".bmp","na","Mask","na","na","na","na","na","na",6,"na","na","na","na","u p ","na","na",37,72,422691,"u",353,0,NA
"ADHVGUSBXWCI","test",5,3,"affectivemisattributionprocedure3","na","na","This word is:<br><br>negative press u ; positive press p","na",".bmp","na","Mask","na","na","na","na","na","na",4,"na","na","na","na","u p ","na","na",38,70,424731,"p",645,0,NA
"ADHVGUSBXWCI","test",5,3,"affectivemisattributionprocedure3","na","na","This word is:<br><br>negative press u ; positive press p","na",".bmp","na","Mask","na","na","na","na","na","na",7,"na","na","na","na","u p ","na","na",39,81,426650,"p",525,0,NA
"ADHVGUSBXWCI","test",5,3,"affectivemisattributionprocedure3","na","na","This word is:<br><br>negative press u ; positive press p","na",".bmp","na","Mask","na","na","na","na","na","na",5,"na","na","na","na","u p ","na","na",40,79,428586,"p",542,0,NA
"ADHVGUSBXWCI","test",5,3,"affectivemisattributionprocedure3","na","na","This word is:<br><br>negative press u ; positive press p","na",".bmp","na","Mask","na","na","na","na","na","na",6,"na","na","na","na","u p ","na","na",41,80,430578,"u",598,0,NA
"ADHVGUSBXWCI","test",5,3,"affectivemisattributionprocedure3","na","na","This word is:<br><br>negative press u ; positive press p","na",".bmp","na","Mask","na","na","na","na","na","na",3,"na","na","na","na","u p ","na","na",42,69,432771,"u",802,0,NA
"ADHVGUSBXWCI","test",5,3,"affectivemisattributionprocedure3","na","na","This word is:<br><br>negative press u ; positive press p","na",".bmp","na","Mask","na","na","na","na","na","na",2,"na","na","na","na","u p ","na","na",43,76,434842,"u",682,0,NA
"ADHVGUSBXWCI","test",5,3,"affectivemisattributionprocedure3","na","na","This word is:<br><br>negative press u ; positive press p","na",".bmp","na","Mask","na","na","na","na","na","na",1,"na","na","na","na","u p ","na","na",44,67,436714,"p",475,0,NA
"ADHVGUSBXWCI","test",5,3,"affectivemisattributionprocedure3","na","na","This word is:<br><br>negative press u ; positive press p","na",".bmp","na","Mask","na","na","na","na","na","na",2,"na","na","na","na","u p ","na","na",45,68,438906,"u",797,0,NA
"ADHVGUSBXWCI","test",5,3,"affectivemisattributionprocedure3","na","na","This word is:<br><br>negative press u ; positive press p","na",".bmp","na","Mask","na","na","na","na","na","na",4,"na","na","na","na","u p ","na","na",46,78,440610,"p",317,0,NA
"ADHVGUSBXWCI","test",5,3,"affectivemisattributionprocedure3","na","na","This word is:<br><br>negative press u ; positive press p","na",".bmp","na","Mask","na","na","na","na","na","na",7,"na","na","na","na","u p ","na","na",47,73,442634,"u",629,0,NA
"ADHVGUSBXWCI","test",5,3,"affectivemisattributionprocedure3","na","na","This word is:<br><br>negative press u ; positive press p","na",".bmp","na","Mask","na","na","na","na","na","na",8,"na","na","na","na","u p ","na","na",48,74,444708,"p",678,0,NA
"ADHVGUSBXWCI","test",5,3,"affectivemisattributionprocedure3","na","na","This word is:<br><br>negative press u ; positive press p","na",".bmp","na","Mask","na","na","na","na","na","na",3,"na","na","na","na","u p ","na","na",49,77,446562,"p",459,0,NA
"ADHVGUSBXWCI","test",5,3,"affectivemisattributionprocedure3","na","na","This word is:<br><br>negative press u ; positive press p","na",".bmp","na","Mask","na","na","na","na","na","na",8,"na","na","na","na","u p ","na","na",50,82,448314,"p",356,0,NA
"ADHVGUSBXWCI","test",2,0,"RWA","na","na","Our country needs free thinkers who will have the courage to stand up against traditional ways even if this upsets many people.<br><br>Very negative 1 - 2 - 3 - 4 - 5 - 6 - 7 Very positive","na","word","na","na","na","na","500","na","na","14",0,"na","na","na","na","1 2 3 4 5 6 7 8 9","na","na",51,148,459083,"6",4842,0,NA
"ADHVGUSBXWCI","test",7,0,"RWA","na","na","It would be best if newspapers were censored so that people would not be able to get hold of destructive and disgusting material.<br><br>Very negative 1 - 2 - 3 - 4 - 5 - 6 - 7 Very positive","na","word","na","na","na","na","500","na","na","14",0,"na","na","na","na","1 2 3 4 5 6 7 8 9","na","na",52,153,465074,"4",5487,0,NA
"ADHVGUSBXWCI","test",5,0,"RWA","na","na","Gods laws about abortion pornography and marriage must be strictly followed before it is too late violations must be punished.<br><br>Very negative 1 - 2 - 3 - 4 - 5 - 6 - 7 Very positive","na","word","na","na","na","na","500","na","na","14",0,"na","na","na","na","1 2 3 4 5 6 7 8 9","na","na",53,151,477291,"1",11710,0,NA
"ADHVGUSBXWCI","test",8,0,"RWA","na","na","Many good people challenge the state criticize the church and ignore the normal way of living.<br><br>Very negative 1 - 2 - 3 - 4 - 5 - 6 - 7 Very positive","na","word","na","na","na","na","500","na","na","14",0,"na","na","na","na","1 2 3 4 5 6 7 8 9","na","na",54,154,490259,"8",12460,0,NA
"ADHVGUSBXWCI","test",4,0,"RWA","na","na","Our society would be better off if we showed tolerance and understanding for untraditional values and opinions.<br><br>Very negative 1 - 2 - 3 - 4 - 5 - 6 - 7 Very positive","na","word","na","na","na","na","500","na","na","14",0,"na","na","na","na","1 2 3 4 5 6 7 8 9","na","na",55,150,494362,"7",3600,0,NA
"ADHVGUSBXWCI","test",12,0,"RWA","na","na","It is better to accept bad literature than to censor it.<br><br>Very negative 1 - 2 - 3 - 4 - 5 - 6 - 7 Very positive","na","word","na","na","na","na","500","na","na","14",0,"na","na","na","na","1 2 3 4 5 6 7 8 9","na","na",56,158,501091,"6",6222,0,NA
"ADHVGUSBXWCI","test",1,0,"RWA","na","na","Our country needs a powerful leader in order to destroy the radical and immoral currents prevailing in society today.<br><br>Very negative 1 - 2 - 3 - 4 - 5 - 6 - 7 Very positive","na","word","na","na","na","na","500","na","na","14",0,"na","na","na","na","1 2 3 4 5 6 7 8 9","na","na",57,147,506426,"5",4827,0,NA
"ADHVGUSBXWCI","test",13,0,"RWA","na","na","Facts show that we have to be harder against crime and sexual immorality in order to uphold law and order.<br><br>Very negative 1 - 2 - 3 - 4 - 5 - 6 - 7 Very positive","na","word","na","na","na","na","500","na","na","14",0,"na","na","na","na","1 2 3 4 5 6 7 8 9","na","na",58,159,510595,"2",3665,0,NA
"ADHVGUSBXWCI","test",10,0,"RWA","na","na","People ought to put less attention to the Bible and religion instead they ought to develop their own moral standards.<br><br>Very negative 1 - 2 - 3 - 4 - 5 - 6 - 7 Very positive","na","word","na","na","na","na","500","na","na","14",0,"na","na","na","na","1 2 3 4 5 6 7 8 9","na","na",59,156,514395,"7",3296,0,NA
"ADHVGUSBXWCI","test",9,0,"RWA","na","na","Our forefathers ought to be honored more for the way they have built our society at the same time we ought to put an end to those forces destroying it.<br><br>Very negative 1 - 2 - 3 - 4 - 5 - 6 - 7 Very positive","na","word","na","na","na","na","500","na","na","14",0,"na","na","na","na","1 2 3 4 5 6 7 8 9","na","na",60,155,521506,"5",6607,0,NA
"ADHVGUSBXWCI","test",6,0,"RWA","na","na","The society needs to show openness towards people thinking differently rather than a strong leader the world is not particularly evil or dangerous.<br><br>Very negative 1 - 2 - 3 - 4 - 5 - 6 - 7 Very positive","na","word","na","na","na","na","500","na","na","14",0,"na","na","na","na","1 2 3 4 5 6 7 8 9","na","na",61,152,527875,"5",5865,0,NA
"ADHVGUSBXWCI","test",15,0,"RWA","na","na","If the society so wants it is the duty of every true citizen to help eliminate the evil that poisons our country from within.<br><br>Very negative 1 - 2 - 3 - 4 - 5 - 6 - 7 Very positive","na","word","na","na","na","na","500","na","na","14",0,"na","na","na","na","1 2 3 4 5 6 7 8 9","na","na",62,161,534954,"4",6574,0,NA
"ADHVGUSBXWCI","test",14,0,"RWA","na","na","The situation in the society of today would be improved if troublemakers were treated with reason and humanity.<br><br>Very negative 1 - 2 - 3 - 4 - 5 - 6 - 7 Very positive","na","word","na","na","na","na","500","na","na","14",0,"na","na","na","na","1 2 3 4 5 6 7 8 9","na","na",63,160,539115,"6",3653,0,NA
"ADHVGUSBXWCI","test",3,0,"RWA","na","na","The old-fashioned ways and old-fashioned values still show the best way to live.<br><br>Very negative 1 - 2 - 3 - 4 - 5 - 6 - 7 Very positive","na","word","na","na","na","na","500","na","na","14",0,"na","na","na","na","1 2 3 4 5 6 7 8 9","na","na",64,149,541803,"4",2184,0,NA
"ADHVGUSBXWCI","test",11,0,"RWA","na","na","There are many radical immoral people trying to ruin things the society ought to stop them.<br><br>Very negative 1 - 2 - 3 - 4 - 5 - 6 - 7 Very positive","na","word","na","na","na","na","500","na","na","14",0,"na","na","na","na","1 2 3 4 5 6 7 8 9","na","na",65,157,550939,"3",8632,0,NA
"ADHVGUSBXWCI","form",6,0,"SECS","na","na","na","Gun ownership","word","1","na","na","na","500","na","na","15",0,"na","na","na","na","na","slider","0_100_5",NA,NA,560015,"10",4926,0,NA
"ADHVGUSBXWCI","form",10,0,"SECS","na","na","na","Business","word","1","na","na","na","500","na","na","15",0,"na","na","na","na","na","slider","0_100_5",NA,NA,564289,"55",3759,0,NA
"ADHVGUSBXWCI","form",7,0,"SECS","na","na","na","Traditional marriage","word","1","na","na","na","500","na","na","15",0,"na","na","na","na","na","slider","0_100_5",NA,NA,568789,"50",3984,0,NA
"ADHVGUSBXWCI","form",9,0,"SECS","na","na","na","Fiscal responsibility","word","1","na","na","na","500","na","na","15",0,"na","na","na","na","na","slider","0_100_5",NA,NA,572704,"60",3400,0,NA
"ADHVGUSBXWCI","form",2,0,"SECS","na","na","na","Limited government","word","1","na","na","na","500","na","na","15",0,"na","na","na","na","na","slider","0_100_5",NA,NA,576158,"50",2938,0,NA
"ADHVGUSBXWCI","form",1,0,"SECS","na","na","na","Abortion","word","1","na","na","na","500","na","na","15",0,"na","na","na","na","na","slider","0_100_5",NA,NA,580490,"50",3813,0,NA
"ADHVGUSBXWCI","form",5,0,"SECS","na","na","na","Welfare benefits","word","1","na","na","na","500","na","na","15",0,"na","na","na","na","na","slider","0_100_5",NA,NA,584022,"60",3016,0,NA
"ADHVGUSBXWCI","form",8,0,"SECS","na","na","na","Traditional values","word","1","na","na","na","500","na","na","15",0,"na","na","na","na","na","slider","0_100_5",NA,NA,586678,"30",2139,0,NA
"ADHVGUSBXWCI","form",4,0,"SECS","na","na","na","Religion","word","1","na","na","na","500","na","na","15",0,"na","na","na","na","na","slider","0_100_5",NA,NA,590503,"5",3310,0,NA
"ADHVGUSBXWCI","form",11,0,"SECS","na","na","na","The family unit","word","1","na","na","na","500","na","na","15",0,"na","na","na","na","na","slider","0_100_5",NA,NA,594024,"60",3007,0,NA
"ADHVGUSBXWCI","form",3,0,"SECS","na","na","na","Military and national security","word","1","na","na","na","500","na","na","15",0,"na","na","na","na","na","slider","0_100_5",NA,NA,598142,"50",3602,0,NA
"ADHVGUSBXWCI","form",12,0,"SECS","na","na","na","Patriotism","word","1","na","na","na","500","na","na","15",0,"na","na","na","na","na","slider","0_100_5",NA,NA,602552,"60",3896,0,NA
"AFMRBPDWJZMR","test",1,0,"apprentissage","na","na","Watch carefully these two families","na",".jpg","na","learn02","na","na","500","na","na","na",0,"na","na","NEXT","na","na","na","na",1,1,343183,"1",11649,0,NA
"AFMRBPDWJZMR","test",3,0,"apprentissage","na","na","To which family does this character belong?","na",".jpg","na","B2","na","1","500","na","na","1",0,"Your answer is wrong","Your answer is correct","FAMILY A"," FAMILY B","na","na","na",2,3,347446,"2",3740,0,NA
"AFMRBPDWJZMR","test",8,0,"apprentissage","na","na","To which family does this character belong?","na",".jpg","na","B7","na","1","500","na","na","1",0,"Your answer is wrong","Your answer is correct","FAMILY A"," FAMILY B","na","na","na",3,8,355705,"1",2828,1,NA
"AFMRBPDWJZMR","test",17,0,"apprentissage","na","na","To which family does this character belong?","na",".jpg","na","M7","na","2","500","na","na","1",0,"Your answer is wrong","Your answer is correct","FAMILY A"," FAMILY B","na","na","na",4,17,362524,"2",4159,1,NA
"AFMRBPDWJZMR","test",10,0,"apprentissage","na","na","To which family does this character belong?","na",".jpg","na","M1","na","2","500","na","na","1",0,"Your answer is wrong","Your answer is correct","FAMILY A"," FAMILY B","na","na","na",5,10,370528,"2",4942,1,NA
"AFMRBPDWJZMR","test",12,0,"apprentissage","na","na","To which family does this character belong?","na",".jpg","na","M3","na","2","500","na","na","1",0,"Your answer is wrong","Your answer is correct","FAMILY A"," FAMILY B","na","na","na",6,12,378771,"1",5442,0,NA
"AFMRBPDWJZMR","test",5,0,"apprentissage","na","na","To which family does this character belong?","na",".jpg","na","B4","na","1","500","na","na","1",0,"Your answer is wrong","Your answer is correct","FAMILY A"," FAMILY B","na","na","na",7,5,384337,"1",3193,1,NA
"AFMRBPDWJZMR","test",11,0,"apprentissage","na","na","To which family does this character belong?","na",".jpg","na","M2","na","2","500","na","na","1",0,"Your answer is wrong","Your answer is correct","FAMILY A"," FAMILY B","na","na","na",8,11,389351,"2",2363,1,NA
"AFMRBPDWJZMR","test",2,0,"apprentissage","na","na","To which family does this character belong?","na",".jpg","na","B1","na","1","500","na","na","1",0,"Your answer is wrong","Your answer is correct","FAMILY A"," FAMILY B","na","na","na",9,2,394802,"1",3120,1,NA
"AFMRBPDWJZMR","test",15,0,"apprentissage","na","na","To which family does this character belong?","na",".jpg","na","M5","na","2","500","na","na","1",0,"Your answer is wrong","Your answer is correct","FAMILY A"," FAMILY B","na","na","na",10,15,400617,"2",3621,1,NA
"AFMRBPDWJZMR","test",9,0,"apprentissage","na","na","To which family does this character belong?","na",".jpg","na","B8","na","1","500","na","na","1",0,"Your answer is wrong","Your answer is correct","FAMILY A"," FAMILY B","na","na","na",11,9,407632,"1",4024,1,NA
"AFMRBPDWJZMR","test",18,0,"apprentissage","na","na","To which family does this character belong?","na",".jpg","na","M8","na","2","500","na","na","1",0,"Your answer is wrong","Your answer is correct","FAMILY A"," FAMILY B","na","na","na",12,18,412694,"1",2720,0,NA
"AFMRBPDWJZMR","test",7,0,"apprentissage","na","na","To which family does this character belong?","na",".jpg","na","B6","na","1","500","na","na","1",0,"Your answer is wrong","Your answer is correct","FAMILY A"," FAMILY B","na","na","na",13,7,417812,"2",2771,0,NA
"AFMRBPDWJZMR","test",14,0,"apprentissage","na","na","To which family does this character belong?","na",".jpg","na","M5","na","2","500","na","na","1",0,"Your answer is wrong","Your answer is correct","FAMILY A"," FAMILY B","na","na","na",14,14,423342,"1",3212,0,NA
"AFMRBPDWJZMR","test",16,0,"apprentissage","na","na","To which family does this character belong?","na",".jpg","na","M6","na","2","500","na","na","1",0,"Your answer is wrong","Your answer is correct","FAMILY A"," FAMILY B","na","na","na",15,16,430088,"2",4055,1,NA
"AFMRBPDWJZMR","test",6,0,"apprentissage","na","na","To which family does this character belong?","na",".jpg","na","B5","na","1","500","na","na","1",0,"Your answer is wrong","Your answer is correct","FAMILY A"," FAMILY B","na","na","na",16,6,435055,"1",2539,1,NA
"AFMRBPDWJZMR","test",4,0,"apprentissage","na","na","To which family does this character belong?","na",".jpg","na","B3","na","1","500","na","na","1",0,"Your answer is wrong","Your answer is correct","FAMILY A"," FAMILY B","na","na","na",17,4,440052,"1",2409,1,NA
"AFMRBPDWJZMR","test",13,0,"apprentissage","na","na","To which family does this character belong?","na",".jpg","na","M4","na","2","500","na","na","1",0,"Your answer is wrong","Your answer is correct","FAMILY A"," FAMILY B","na","na","na",18,13,445077,"1",2528,0,NA
"AFMRBPDWJZMR","test",5,4,"affectivemisattributionprocedure4","na","na","This word is:<br><br>negative press u ; positive press p","na",".bmp","na","Mask","na","na","na","na","na","na",3,"na","na","na","na","u p ","na","na",19,117,731945,"u",2486,0,NA
"AFMRBPDWJZMR","test",5,4,"affectivemisattributionprocedure4","na","na","This word is:<br><br>negative press u ; positive press p","na",".bmp","na","Mask","na","na","na","na","na","na",5,"na","na","na","na","u p ","na","na",20,127,734279,"u",926,0,NA
"AFMRBPDWJZMR","test",5,4,"affectivemisattributionprocedure4","na","na","This word is:<br><br>negative press u ; positive press p","na",".bmp","na","Mask","na","na","na","na","na","na",4,"na","na","na","na","u p ","na","na",21,126,736702,"p",981,0,NA
"AFMRBPDWJZMR","test",5,4,"affectivemisattributionprocedure4","na","na","This word is:<br><br>negative press u ; positive press p","na",".bmp","na","Mask","na","na","na","na","na","na",2,"na","na","na","na","u p ","na","na",22,116,738815,"p",693,0,NA
"AFMRBPDWJZMR","test",5,4,"affectivemisattributionprocedure4","na","na","This word is:<br><br>negative press u ; positive press p","na",".bmp","na","Mask","na","na","na","na","na","na",7,"na","na","na","na","u p ","na","na",23,121,741124,"p",884,0,NA
"AFMRBPDWJZMR","test",5,4,"affectivemisattributionprocedure4","na","na","This word is:<br><br>negative press u ; positive press p","na",".bmp","na","Mask","na","na","na","na","na","na",4,"na","na","na","na","u p ","na","na",24,118,743624,"u",905,0,NA
"AFMRBPDWJZMR","test",5,4,"affectivemisattributionprocedure4","na","na","This word is:<br><br>negative press u ; positive press p","na",".bmp","na","Mask","na","na","na","na","na","na",8,"na","na","na","na","u p ","na","na",25,130,745515,"p",463,0,NA
"AFMRBPDWJZMR","test",5,4,"affectivemisattributionprocedure4","na","na","This word is:<br><br>negative press u ; positive press p","na",".bmp","na","Mask","na","na","na","na","na","na",3,"na","na","na","na","u p ","na","na",26,125,747738,"u",803,0,NA
"AFMRBPDWJZMR","test",5,4,"affectivemisattributionprocedure4","na","na","This word is:<br><br>negative press u ; positive press p","na",".bmp","na","Mask","na","na","na","na","na","na",2,"na","na","na","na","u p ","na","na",27,124,749719,"u",567,0,NA
"AFMRBPDWJZMR","test",5,4,"affectivemisattributionprocedure4","na","na","This word is:<br><br>negative press u ; positive press p","na",".bmp","na","Mask","na","na","na","na","na","na",1,"na","na","na","na","u p ","na","na",28,123,751718,"u",584,0,NA
"AFMRBPDWJZMR","test",5,4,"affectivemisattributionprocedure4","na","na","This word is:<br><br>negative press u ; positive press p","na",".bmp","na","Mask","na","na","na","na","na","na",1,"na","na","na","na","u p ","na","na",29,115,754091,"p",954,0,NA
"AFMRBPDWJZMR","test",5,4,"affectivemisattributionprocedure4","na","na","This word is:<br><br>negative press u ; positive press p","na",".bmp","na","Mask","na","na","na","na","na","na",6,"na","na","na","na","u p ","na","na",30,128,756348,"u",860,0,NA
"AFMRBPDWJZMR","test",5,4,"affectivemisattributionprocedure4","na","na","This word is:<br><br>negative press u ; positive press p","na",".bmp","na","Mask","na","na","na","na","na","na",7,"na","na","na","na","u p ","na","na",31,129,758782,"u",1009,0,NA
"AFMRBPDWJZMR","test",5,4,"affectivemisattributionprocedure4","na","na","This word is:<br><br>negative press u ; positive press p","na",".bmp","na","Mask","na","na","na","na","na","na",8,"na","na","na","na","u p ","na","na",32,122,761232,"u",1010,0,NA
"AFMRBPDWJZMR","test",5,4,"affectivemisattributionprocedure4","na","na","This word is:<br><br>negative press u ; positive press p","na",".bmp","na","Mask","na","na","na","na","na","na",6,"na","na","na","na","u p ","na","na",33,120,763758,"u",1054,0,NA
"AFMRBPDWJZMR","test",5,4,"affectivemisattributionprocedure4","na","na","This word is:<br><br>negative press u ; positive press p","na",".bmp","na","Mask","na","na","na","na","na","na",5,"na","na","na","na","u p ","na","na",34,119,765775,"p",621,0,NA
"AFMRBPDWJZMR","test",11,4,"ratings4","na","na","Your general feelings about this member are:<br><br>Very negatives 1 - 2 - 3 - 4 - 5 - 6 - 7 - 8 - 9 Very positives","na",".jpg","na","M3","na","na","500","na","na","13",0,"na","na","na","na","1 2 3 4 5 6 7 8 9","na","na",35,141,784669,"1",10855,0,NA
"AFMRBPDWJZMR","test",13,4,"ratings4","na","na","Your general feelings about this member are:<br><br>Very negatives 1 - 2 - 3 - 4 - 5 - 6 - 7 - 8 - 9 Very positives","na",".jpg","na","M5","na","na","500","na","na","13",0,"na","na","na","na","1 2 3 4 5 6 7 8 9","na","na",36,143,789013,"1",3817,0,NA
"AFMRBPDWJZMR","test",8,4,"ratings4","na","na","Your general feelings about this member are:<br><br>Very negatives 1 - 2 - 3 - 4 - 5 - 6 - 7 - 8 - 9 Very positives","na",".jpg","na","B8","na","na","500","na","na","13",0,"na","na","na","na","1 2 3 4 5 6 7 8 9","na","na",37,138,792192,"8",2655,0,NA
"AFMRBPDWJZMR","test",12,4,"ratings4","na","na","Your general feelings about this member are:<br><br>Very negatives 1 - 2 - 3 - 4 - 5 - 6 - 7 - 8 - 9 Very positives","na",".jpg","na","M4","na","na","500","na","na","13",0,"na","na","na","na","1 2 3 4 5 6 7 8 9","na","na",38,142,795166,"8",2454,0,NA
"AFMRBPDWJZMR","test",9,4,"ratings4","na","na","Your general feelings about this member are:<br><br>Very negatives 1 - 2 - 3 - 4 - 5 - 6 - 7 - 8 - 9 Very positives","na",".jpg","na","M1","na","na","500","na","na","13",0,"na","na","na","na","1 2 3 4 5 6 7 8 9","na","na",39,139,797152,"1",1469,0,NA
"AFMRBPDWJZMR","test",16,4,"ratings4","na","na","Your general feelings about this member are:<br><br>Very negatives 1 - 2 - 3 - 4 - 5 - 6 - 7 - 8 - 9 Very positives","na",".jpg","na","M8","na","na","500","na","na","13",0,"na","na","na","na","1 2 3 4 5 6 7 8 9","na","na",40,146,800616,"7",2954,0,NA
"AFMRBPDWJZMR","test",15,4,"ratings4","na","na","Your general feelings about this member are:<br><br>Very negatives 1 - 2 - 3 - 4 - 5 - 6 - 7 - 8 - 9 Very positives","na",".jpg","na","M7","na","na","500","na","na","13",0,"na","na","na","na","1 2 3 4 5 6 7 8 9","na","na",41,145,804017,"1",2873,0,NA
"AFMRBPDWJZMR","test",1,4,"ratings4","na","na","Your general feelings about this member are:<br><br>Very negatives 1 - 2 - 3 - 4 - 5 - 6 - 7 - 8 - 9 Very positives","na",".jpg","na","B1","na","na","500","na","na","13",0,"na","na","na","na","1 2 3 4 5 6 7 8 9","na","na",42,131,806564,"9",2020,0,NA
"AFMRBPDWJZMR","test",6,4,"ratings4","na","na","Your general feelings about this member are:<br><br>Very negatives 1 - 2 - 3 - 4 - 5 - 6 - 7 - 8 - 9 Very positives","na",".jpg","na","B6","na","na","500","na","na","13",0,"na","na","na","na","1 2 3 4 5 6 7 8 9","na","na",43,136,808946,"9",1848,0,NA
"AFMRBPDWJZMR","test",14,4,"ratings4","na","na","Your general feelings about this member are:<br><br>Very negatives 1 - 2 - 3 - 4 - 5 - 6 - 7 - 8 - 9 Very positives","na",".jpg","na","M6","na","na","500","na","na","13",0,"na","na","na","na","1 2 3 4 5 6 7 8 9","na","na",44,144,811248,"3",1791,0,NA
"AFMRBPDWJZMR","test",10,4,"ratings4","na","na","Your general feelings about this member are:<br><br>Very negatives 1 - 2 - 3 - 4 - 5 - 6 - 7 - 8 - 9 Very positives","na",".jpg","na","M2","na","na","500","na","na","13",0,"na","na","na","na","1 2 3 4 5 6 7 8 9","na","na",45,140,813826,"3",2065,0,NA
"AFMRBPDWJZMR","test",2,4,"ratings4","na","na","Your general feelings about this member are:<br><br>Very negatives 1 - 2 - 3 - 4 - 5 - 6 - 7 - 8 - 9 Very positives","na",".jpg","na","B2","na","na","500","na","na","13",0,"na","na","na","na","1 2 3 4 5 6 7 8 9","na","na",46,132,816216,"8",1869,0,NA
"AFMRBPDWJZMR","test",7,4,"ratings4","na","na","Your general feelings about this member are:<br><br>Very negatives 1 - 2 - 3 - 4 - 5 - 6 - 7 - 8 - 9 Very positives","na",".jpg","na","B7","na","na","500","na","na","13",0,"na","na","na","na","1 2 3 4 5 6 7 8 9","na","na",47,137,819730,"4",2973,0,NA
"AFMRBPDWJZMR","test",4,4,"ratings4","na","na","Your general feelings about this member are:<br><br>Very negatives 1 - 2 - 3 - 4 - 5 - 6 - 7 - 8 - 9 Very positives","na",".jpg","na","B4","na","na","500","na","na","13",0,"na","na","na","na","1 2 3 4 5 6 7 8 9","na","na",48,134,822404,"4",2149,0,NA
"AFMRBPDWJZMR","test",5,4,"ratings4","na","na","Your general feelings about this member are:<br><br>Very negatives 1 - 2 - 3 - 4 - 5 - 6 - 7 - 8 - 9 Very positives","na",".jpg","na","B5","na","na","500","na","na","13",0,"na","na","na","na","1 2 3 4 5 6 7 8 9","na","na",49,135,824529,"3",1605,0,NA
"AFMRBPDWJZMR","test",3,4,"ratings4","na","na","Your general feelings about this member are:<br><br>Very negatives 1 - 2 - 3 - 4 - 5 - 6 - 7 - 8 - 9 Very positives","na",".jpg","na","B3","na","na","500","na","na","13",0,"na","na","na","na","1 2 3 4 5 6 7 8 9","na","na",50,133,827909,"7",2858,0,NA
"AFMRBPDWJZMR","test",2,0,"RWA","na","na","Our country needs free thinkers who will have the courage to stand up against traditional ways even if this upsets many people.<br><br>Very negative 1 - 2 - 3 - 4 - 5 - 6 - 7 Very positive","na","word","na","na","na","na","500","na","na","14",0,"na","na","na","na","1 2 3 4 5 6 7 8 9","na","na",51,148,851643,"4",13233,0,NA
"AFMRBPDWJZMR","test",13,0,"RWA","na","na","Facts show that we have to be harder against crime and sexual immorality in order to uphold law and order.<br><br>Very negative 1 - 2 - 3 - 4 - 5 - 6 - 7 Very positive","na","word","na","na","na","na","500","na","na","14",0,"na","na","na","na","1 2 3 4 5 6 7 8 9","na","na",52,159,858340,"9",6177,0,NA
"AFMRBPDWJZMR","test",14,0,"RWA","na","na","The situation in the society of today would be improved if troublemakers were treated with reason and humanity.<br><br>Very negative 1 - 2 - 3 - 4 - 5 - 6 - 7 Very positive","na","word","na","na","na","na","500","na","na","14",0,"na","na","na","na","1 2 3 4 5 6 7 8 9","na","na",53,160,861299,"7",2432,0,NA
"AFMRBPDWJZMR","test",8,0,"RWA","na","na","Many good people challenge the state criticize the church and ignore the normal way of living.<br><br>Very negative 1 - 2 - 3 - 4 - 5 - 6 - 7 Very positive","na","word","na","na","na","na","500","na","na","14",0,"na","na","na","na","1 2 3 4 5 6 7 8 9","na","na",54,154,868526,"6",6689,0,NA
"AFMRBPDWJZMR","test",11,0,"RWA","na","na","There are many radical immoral people trying to ruin things the society ought to stop them.<br><br>Very negative 1 - 2 - 3 - 4 - 5 - 6 - 7 Very positive","na","word","na","na","na","na","500","na","na","14",0,"na","na","na","na","1 2 3 4 5 6 7 8 9","na","na",55,157,874087,"7",5040,0,NA
"AFMRBPDWJZMR","test",12,0,"RWA","na","na","It is better to accept bad literature than to censor it.<br><br>Very negative 1 - 2 - 3 - 4 - 5 - 6 - 7 Very positive","na","word","na","na","na","na","500","na","na","14",0,"na","na","na","na","1 2 3 4 5 6 7 8 9","na","na",56,158,880309,"5",5694,0,NA
"AFMRBPDWJZMR","test",6,0,"RWA","na","na","The society needs to show openness towards people thinking differently rather than a strong leader the world is not particularly evil or dangerous.<br><br>Very negative 1 - 2 - 3 - 4 - 5 - 6 - 7 Very positive","na","word","na","na","na","na","500","na","na","14",0,"na","na","na","na","1 2 3 4 5 6 7 8 9","na","na",57,152,891720,"7",10889,0,NA
"AFMRBPDWJZMR","test",3,0,"RWA","na","na","The old-fashioned ways and old-fashioned values still show the best way to live.<br><br>Very negative 1 - 2 - 3 - 4 - 5 - 6 - 7 Very positive","na","word","na","na","na","na","500","na","na","14",0,"na","na","na","na","1 2 3 4 5 6 7 8 9","na","na",58,149,898051,"4",5801,0,NA
"AFMRBPDWJZMR","test",1,0,"RWA","na","na","Our country needs a powerful leader in order to destroy the radical and immoral currents prevailing in society today.<br><br>Very negative 1 - 2 - 3 - 4 - 5 - 6 - 7 Very positive","na","word","na","na","na","na","500","na","na","14",0,"na","na","na","na","1 2 3 4 5 6 7 8 9","na","na",59,147,905602,"5",7022,0,NA
"AFMRBPDWJZMR","test",7,0,"RWA","na","na","It would be best if newspapers were censored so that people would not be able to get hold of destructive and disgusting material.<br><br>Very negative 1 - 2 - 3 - 4 - 5 - 6 - 7 Very positive","na","word","na","na","na","na","500","na","na","14",0,"na","na","na","na","1 2 3 4 5 6 7 8 9","na","na",60,153,914431,"2",8298,0,NA
"AFMRBPDWJZMR","test",5,0,"RWA","na","na","Gods laws about abortion pornography and marriage must be strictly followed before it is too late violations must be punished.<br><br>Very negative 1 - 2 - 3 - 4 - 5 - 6 - 7 Very positive","na","word","na","na","na","na","500","na","na","14",0,"na","na","na","na","1 2 3 4 5 6 7 8 9","na","na",61,151,922158,"1",7192,0,NA
"AFMRBPDWJZMR","test",15,0,"RWA","na","na","If the society so wants it is the duty of every true citizen to help eliminate the evil that poisons our country from within.<br><br>Very negative 1 - 2 - 3 - 4 - 5 - 6 - 7 Very positive","na","word","na","na","na","na","500","na","na","14",0,"na","na","na","na","1 2 3 4 5 6 7 8 9","na","na",62,161,930996,"3",8321,0,NA
"AFMRBPDWJZMR","test",10,0,"RWA","na","na","People ought to put less attention to the Bible and religion instead they ought to develop their own moral standards.<br><br>Very negative 1 - 2 - 3 - 4 - 5 - 6 - 7 Very positive","na","word","na","na","na","na","500","na","na","14",0,"na","na","na","na","1 2 3 4 5 6 7 8 9","na","na",63,156,938148,"3",6622,0,NA
"AFMRBPDWJZMR","test",9,0,"RWA","na","na","Our forefathers ought to be honored more for the way they have built our society at the same time we ought to put an end to those forces destroying it.<br><br>Very negative 1 - 2 - 3 - 4 - 5 - 6 - 7 Very positive","na","word","na","na","na","na","500","na","na","14",0,"na","na","na","na","1 2 3 4 5 6 7 8 9","na","na",64,155,945351,"4",6674,0,NA
"AFMRBPDWJZMR","test",4,0,"RWA","na","na","Our society would be better off if we showed tolerance and understanding for untraditional values and opinions.<br><br>Very negative 1 - 2 - 3 - 4 - 5 - 6 - 7 Very positive","na","word","na","na","na","na","500","na","na","14",0,"na","na","na","na","1 2 3 4 5 6 7 8 9","na","na",65,150,950570,"7",4698,0,NA
"AFMRBPDWJZMR","form",12,0,"SECS","na","na","na","Patriotism","word","1","na","na","na","500","na","na","15",0,"na","na","na","na","na","slider","0_100_5",NA,NA,964841,"50",8368,0,NA
"AFMRBPDWJZMR","form",6,0,"SECS","na","na","na","Gun ownership","word","1","na","na","na","500","na","na","15",0,"na","na","na","na","na","slider","0_100_5",NA,NA,970997,"5",5579,0,NA
"AFMRBPDWJZMR","form",9,0,"SECS","na","na","na","Fiscal responsibility","word","1","na","na","na","500","na","na","15",0,"na","na","na","na","na","slider","0_100_5",NA,NA,976626,"70",5073,0,NA
"AFMRBPDWJZMR","form",10,0,"SECS","na","na","na","Business","word","1","na","na","na","500","na","na","15",0,"na","na","na","na","na","slider","0_100_5",NA,NA,981252,"85",4055,0,NA
"AFMRBPDWJZMR","form",4,0,"SECS","na","na","na","Religion","word","1","na","na","na","500","na","na","15",0,"na","na","na","na","na","slider","0_100_5",NA,NA,985565,"15",3725,0,NA
"AFMRBPDWJZMR","form",2,0,"SECS","na","na","na","Limited government","word","1","na","na","na","500","na","na","15",0,"na","na","na","na","na","slider","0_100_5",NA,NA,991729,"5",5597,0,NA
"AFMRBPDWJZMR","form",5,0,"SECS","na","na","na","Welfare benefits","word","1","na","na","na","500","na","na","15",0,"na","na","na","na","na","slider","0_100_5",NA,NA,996195,"90",3876,0,NA
"AFMRBPDWJZMR","form",8,0,"SECS","na","na","na","Traditional values","word","1","na","na","na","500","na","na","15",0,"na","na","na","na","na","slider","0_100_5",NA,NA,1000505,"60",3738,0,NA
"AFMRBPDWJZMR","form",3,0,"SECS","na","na","na","Military and national security","word","1","na","na","na","500","na","na","15",0,"na","na","na","na","na","slider","0_100_5",NA,NA,1006076,"60",4999,0,NA
"AFMRBPDWJZMR","form",7,0,"SECS","na","na","na","Traditional marriage","word","1","na","na","na","500","na","na","15",0,"na","na","na","na","na","slider","0_100_5",NA,NA,1010617,"20",3955,0,NA
"AFMRBPDWJZMR","form",11,0,"SECS","na","na","na","The family unit","word","1","na","na","na","500","na","na","15",0,"na","na","na","na","na","slider","0_100_5",NA,NA,1015609,"70",4429,0,NA
"AFMRBPDWJZMR","form",1,0,"SECS","na","na","na","Abortion","word","1","na","na","na","500","na","na","15",0,"na","na","na","na","na","slider","0_100_5",NA,NA,1022307,"55",6148,0,NA
"ANUHEGFSFGLX","test",1,0,"apprentissage","na","na","Watch carefully these two families","na",".jpg","na","learn02","na","na","500","na","na","na",0,"na","na","NEXT","na","na","na","na",1,1,146496,"1",36614,0,NA
"ANUHEGFSFGLX","test",7,0,"apprentissage","na","na","To which family does this character belong?","na",".jpg","na","B6","na","1","500","na","na","1",0,"Your answer is wrong","Your answer is correct","FAMILY A"," FAMILY B","na","na","na",2,7,154248,"1",7234,1,NA
"ANUHEGFSFGLX","test",3,0,"apprentissage","na","na","To which family does this character belong?","na",".jpg","na","B2","na","1","500","na","na","1",0,"Your answer is wrong","Your answer is correct","FAMILY A"," FAMILY B","na","na","na",3,3,160385,"1",3575,1,NA
"ANUHEGFSFGLX","test",8,0,"apprentissage","na","na","To which family does this character belong?","na",".jpg","na","B7","na","1","500","na","na","1",0,"Your answer is wrong","Your answer is correct","FAMILY A"," FAMILY B","na","na","na",4,8,164293,"1",2066,1,NA
"ANUHEGFSFGLX","test",16,0,"apprentissage","na","na","To which family does this character belong?","na",".jpg","na","M6","na","2","500","na","na","1",0,"Your answer is wrong","Your answer is correct","FAMILY A"," FAMILY B","na","na","na",5,16,167324,"2",1370,1,NA
"ANUHEGFSFGLX","test",6,0,"apprentissage","na","na","To which family does this character belong?","na",".jpg","na","B5","na","1","500","na","na","1",0,"Your answer is wrong","Your answer is correct","FAMILY A"," FAMILY B","na","na","na",6,6,172179,"1",3156,1,NA
"ANUHEGFSFGLX","test",17,0,"apprentissage","na","na","To which family does this character belong?","na",".jpg","na","M7","na","2","500","na","na","1",0,"Your answer is wrong","Your answer is correct","FAMILY A"," FAMILY B","na","na","na",7,17,175160,"2",1347,1,NA
"ANUHEGFSFGLX","test",4,0,"apprentissage","na","na","To which family does this character belong?","na",".jpg","na","B3","na","1","500","na","na","1",0,"Your answer is wrong","Your answer is correct","FAMILY A"," FAMILY B","na","na","na",8,4,178135,"1",1278,1,NA
"ANUHEGFSFGLX","test",14,0,"apprentissage","na","na","To which family does this character belong?","na",".jpg","na","M5","na","2","500","na","na","1",0,"Your answer is wrong","Your answer is correct","FAMILY A"," FAMILY B","na","na","na",9,14,180696,"2",1199,1,NA
"ANUHEGFSFGLX","test",5,0,"apprentissage","na","na","To which family does this character belong?","na",".jpg","na","B4","na","1","500","na","na","1",0,"Your answer is wrong","Your answer is correct","FAMILY A"," FAMILY B","na","na","na",10,5,183746,"1",1614,1,NA
"ANUHEGFSFGLX","test",9,0,"apprentissage","na","na","To which family does this character belong?","na",".jpg","na","B8","na","1","500","na","na","1",0,"Your answer is wrong","Your answer is correct","FAMILY A"," FAMILY B","na","na","na",11,9,187217,"2",2195,0,NA
"ANUHEGFSFGLX","test",13,0,"apprentissage","na","na","To which family does this character belong?","na",".jpg","na","M4","na","2","500","na","na","1",0,"Your answer is wrong","Your answer is correct","FAMILY A"," FAMILY B","na","na","na",12,13,189854,"2",1325,1,NA
"ANUHEGFSFGLX","test",2,0,"apprentissage","na","na","To which family does this character belong?","na",".jpg","na","B1","na","1","500","na","na","1",0,"Your answer is wrong","Your answer is correct","FAMILY A"," FAMILY B","na","na","na",13,2,192967,"1",1648,1,NA
"ANUHEGFSFGLX","test",11,0,"apprentissage","na","na","To which family does this character belong?","na",".jpg","na","M2","na","2","500","na","na","1",0,"Your answer is wrong","Your answer is correct","FAMILY A"," FAMILY B","na","na","na",14,11,195711,"2",1438,1,NA
"ANUHEGFSFGLX","test",15,0,"apprentissage","na","na","To which family does this character belong?","na",".jpg","na","M5","na","2","500","na","na","1",0,"Your answer is wrong","Your answer is correct","FAMILY A"," FAMILY B","na","na","na",15,15,198636,"2",1318,1,NA
"ANUHEGFSFGLX","test",10,0,"apprentissage","na","na","To which family does this character belong?","na",".jpg","na","M1","na","2","500","na","na","1",0,"Your answer is wrong","Your answer is correct","FAMILY A"," FAMILY B","na","na","na",16,10,201417,"2",1297,1,NA
"ANUHEGFSFGLX","test",12,0,"apprentissage","na","na","To which family does this character belong?","na",".jpg","na","M3","na","2","500","na","na","1",0,"Your answer is wrong","Your answer is correct","FAMILY A"," FAMILY B","na","na","na",17,12,204534,"2",1661,1,NA
"ANUHEGFSFGLX","test",18,0,"apprentissage","na","na","To which family does this character belong?","na",".jpg","na","M8","na","2","500","na","na","1",0,"Your answer is wrong","Your answer is correct","FAMILY A"," FAMILY B","na","na","na",18,18,207113,"2",1242,1,NA
"ANUHEGFSFGLX","test",8,1,"ratings1","na","na","Your general feelings about this member are:<br><br>Very negatives 1 - 2 - 3 - 4 - 5 - 6 - 7 - 8 - 9 Very positives","na",".jpg","na","B8","na","na","500","na","na","10",0,"na","na","na","na","1 2 3 4 5 6 7 8 9","na","na",19,26,431319,"2",15417,0,NA
"ANUHEGFSFGLX","test",5,1,"ratings1","na","na","Your general feelings about this member are:<br><br>Very negatives 1 - 2 - 3 - 4 - 5 - 6 - 7 - 8 - 9 Very positives","na",".jpg","na","B5","na","na","500","na","na","10",0,"na","na","na","na","1 2 3 4 5 6 7 8 9","na","na",20,23,437685,"6",5855,0,NA
"ANUHEGFSFGLX","test",16,1,"ratings1","na","na","Your general feelings about this member are:<br><br>Very negatives 1 - 2 - 3 - 4 - 5 - 6 - 7 - 8 - 9 Very positives","na",".jpg","na","M8","na","na","500","na","na","10",0,"na","na","na","na","1 2 3 4 5 6 7 8 9","na","na",21,34,442747,"1",4545,0,NA
"ANUHEGFSFGLX","test",10,1,"ratings1","na","na","Your general feelings about this member are:<br><br>Very negatives 1 - 2 - 3 - 4 - 5 - 6 - 7 - 8 - 9 Very positives","na",".jpg","na","M2","na","na","500","na","na","10",0,"na","na","na","na","1 2 3 4 5 6 7 8 9","na","na",22,28,445856,"1",2608,0,NA
"ANUHEGFSFGLX","test",15,1,"ratings1","na","na","Your general feelings about this member are:<br><br>Very negatives 1 - 2 - 3 - 4 - 5 - 6 - 7 - 8 - 9 Very positives","na",".jpg","na","M7","na","na","500","na","na","10",0,"na","na","na","na","1 2 3 4 5 6 7 8 9","na","na",23,33,448279,"2",1923,0,NA
"ANUHEGFSFGLX","test",2,1,"ratings1","na","na","Your general feelings about this member are:<br><br>Very negatives 1 - 2 - 3 - 4 - 5 - 6 - 7 - 8 - 9 Very positives","na",".jpg","na","B2","na","na","500","na","na","10",0,"na","na","na","na","1 2 3 4 5 6 7 8 9","na","na",24,20,450497,"4",1717,0,NA
"ANUHEGFSFGLX","test",6,1,"ratings1","na","na","Your general feelings about this member are:<br><br>Very negatives 1 - 2 - 3 - 4 - 5 - 6 - 7 - 8 - 9 Very positives","na",".jpg","na","B6","na","na","500","na","na","10",0,"na","na","na","na","1 2 3 4 5 6 7 8 9","na","na",25,24,454295,"5",3283,0,NA
"ANUHEGFSFGLX","test",7,1,"ratings1","na","na","Your general feelings about this member are:<br><br>Very negatives 1 - 2 - 3 - 4 - 5 - 6 - 7 - 8 - 9 Very positives","na",".jpg","na","B7","na","na","500","na","na","10",0,"na","na","na","na","1 2 3 4 5 6 7 8 9","na","na",26,25,456295,"6",1499,0,NA
"ANUHEGFSFGLX","test",9,1,"ratings1","na","na","Your general feelings about this member are:<br><br>Very negatives 1 - 2 - 3 - 4 - 5 - 6 - 7 - 8 - 9 Very positives","na",".jpg","na","M1","na","na","500","na","na","10",0,"na","na","na","na","1 2 3 4 5 6 7 8 9","na","na",27,27,458566,"1",1754,0,NA
"ANUHEGFSFGLX","test",13,1,"ratings1","na","na","Your general feelings about this member are:<br><br>Very negatives 1 - 2 - 3 - 4 - 5 - 6 - 7 - 8 - 9 Very positives","na",".jpg","na","M5","na","na","500","na","na","10",0,"na","na","na","na","1 2 3 4 5 6 7 8 9","na","na",28,31,460184,"2",1114,0,NA
"ANUHEGFSFGLX","test",4,1,"ratings1","na","na","Your general feelings about this member are:<br><br>Very negatives 1 - 2 - 3 - 4 - 5 - 6 - 7 - 8 - 9 Very positives","na",".jpg","na","B4","na","na","500","na","na","10",0,"na","na","na","na","1 2 3 4 5 6 7 8 9","na","na",29,22,462622,"6",1934,0,NA
"ANUHEGFSFGLX","test",1,1,"ratings1","na","na","Your general feelings about this member are:<br><br>Very negatives 1 - 2 - 3 - 4 - 5 - 6 - 7 - 8 - 9 Very positives","na",".jpg","na","B1","na","na","500","na","na","10",0,"na","na","na","na","1 2 3 4 5 6 7 8 9","na","na",30,19,465997,"6",2871,0,NA
"ANUHEGFSFGLX","test",3,1,"ratings1","na","na","Your general feelings about this member are:<br><br>Very negatives 1 - 2 - 3 - 4 - 5 - 6 - 7 - 8 - 9 Very positives","na",".jpg","na","B3","na","na","500","na","na","10",0,"na","na","na","na","1 2 3 4 5 6 7 8 9","na","na",31,21,467730,"7",1202,0,NA
"ANUHEGFSFGLX","test",14,1,"ratings1","na","na","Your general feelings about this member are:<br><br>Very negatives 1 - 2 - 3 - 4 - 5 - 6 - 7 - 8 - 9 Very positives","na",".jpg","na","M6","na","na","500","na","na","10",0,"na","na","na","na","1 2 3 4 5 6 7 8 9","na","na",32,32,469997,"1",1766,0,NA
"ANUHEGFSFGLX","test",11,1,"ratings1","na","na","Your general feelings about this member are:<br><br>Very negatives 1 - 2 - 3 - 4 - 5 - 6 - 7 - 8 - 9 Very positives","na",".jpg","na","M3","na","na","500","na","na","10",0,"na","na","na","na","1 2 3 4 5 6 7 8 9","na","na",33,29,471419,"1",891,0,NA
"ANUHEGFSFGLX","test",12,1,"ratings1","na","na","Your general feelings about this member are:<br><br>Very negatives 1 - 2 - 3 - 4 - 5 - 6 - 7 - 8 - 9 Very positives","na",".jpg","na","M4","na","na","500","na","na","10",0,"na","na","na","na","1 2 3 4 5 6 7 8 9","na","na",34,30,473371,"2",1443,0,NA
"ANUHEGFSFGLX","test",5,1,"affectivemisattributionprocedure1","na","na","This word is:<br><br>negative press u ; positive press p","na",".bmp","na","Mask","na","na","na","na","na","na",3,"na","na","na","na","u p ","na","na",35,37,516728,"p",8124,0,NA
"ANUHEGFSFGLX","test",5,1,"affectivemisattributionprocedure1","na","na","This word is:<br><br>negative press u ; positive press p","na",".bmp","na","Mask","na","na","na","na","na","na",2,"na","na","na","na","u p ","na","na",36,36,520198,"u",2046,0,NA
"ANUHEGFSFGLX","test",5,1,"affectivemisattributionprocedure1","na","na","This word is:<br><br>negative press u ; positive press p","na",".bmp","na","Mask","na","na","na","na","na","na",4,"na","na","na","na","u p ","na","na",37,46,524448,"p",2829,0,NA
"ANUHEGFSFGLX","test",5,1,"affectivemisattributionprocedure1","na","na","This word is:<br><br>negative press u ; positive press p","na",".bmp","na","Mask","na","na","na","na","na","na",7,"na","na","na","na","u p ","na","na",38,41,527071,"p",1235,0,NA
"ANUHEGFSFGLX","test",5,1,"affectivemisattributionprocedure1","na","na","This word is:<br><br>negative press u ; positive press p","na",".bmp","na","Mask","na","na","na","na","na","na",8,"na","na","na","na","u p ","na","na",39,42,529513,"u",1028,0,NA
"ANUHEGFSFGLX","test",5,1,"affectivemisattributionprocedure1","na","na","This word is:<br><br>negative press u ; positive press p","na",".bmp","na","Mask","na","na","na","na","na","na",8,"na","na","na","na","u p ","na","na",40,50,532930,"u",1996,0,NA
"ANUHEGFSFGLX","test",5,1,"affectivemisattributionprocedure1","na","na","This word is:<br><br>negative press u ; positive press p","na",".bmp","na","Mask","na","na","na","na","na","na",5,"na","na","na","na","u p ","na","na",41,47,536024,"p",1706,0,NA
"ANUHEGFSFGLX","test",5,1,"affectivemisattributionprocedure1","na","na","This word is:<br><br>negative press u ; positive press p","na",".bmp","na","Mask","na","na","na","na","na","na",3,"na","na","na","na","u p ","na","na",42,45,540181,"u",2764,0,NA
"ANUHEGFSFGLX","test",5,1,"affectivemisattributionprocedure1","na","na","This word is:<br><br>negative press u ; positive press p","na",".bmp","na","Mask","na","na","na","na","na","na",7,"na","na","na","na","u p ","na","na",43,49,542626,"u",1059,0,NA
"ANUHEGFSFGLX","test",5,1,"affectivemisattributionprocedure1","na","na","This word is:<br><br>negative press u ; positive press p","na",".bmp","na","Mask","na","na","na","na","na","na",4,"na","na","na","na","u p ","na","na",44,38,544823,"u",789,0,NA
"ANUHEGFSFGLX","test",5,1,"affectivemisattributionprocedure1","na","na","This word is:<br><br>negative press u ; positive press p","na",".bmp","na","Mask","na","na","na","na","na","na",5,"na","na","na","na","u p ","na","na",45,39,547134,"p",882,0,NA
"ANUHEGFSFGLX","test",5,1,"affectivemisattributionprocedure1","na","na","This word is:<br><br>negative press u ; positive press p","na",".bmp","na","Mask","na","na","na","na","na","na",6,"na","na","na","na","u p ","na","na",46,40,549221,"p",669,0,NA
"ANUHEGFSFGLX","test",5,1,"affectivemisattributionprocedure1","na","na","This word is:<br><br>negative press u ; positive press p","na",".bmp","na","Mask","na","na","na","na","na","na",1,"na","na","na","na","u p ","na","na",47,35,551304,"p",669,0,NA
"ANUHEGFSFGLX","test",5,1,"affectivemisattributionprocedure1","na","na","This word is:<br><br>negative press u ; positive press p","na",".bmp","na","Mask","na","na","na","na","na","na",1,"na","na","na","na","u p ","na","na",48,43,553493,"p",776,0,NA
"ANUHEGFSFGLX","test",5,1,"affectivemisattributionprocedure1","na","na","This word is:<br><br>negative press u ; positive press p","na",".bmp","na","Mask","na","na","na","na","na","na",6,"na","na","na","na","u p ","na","na",49,48,557852,"u",2951,0,NA
"ANUHEGFSFGLX","test",5,1,"affectivemisattributionprocedure1","na","na","This word is:<br><br>negative press u ; positive press p","na",".bmp","na","Mask","na","na","na","na","na","na",2,"na","na","na","na","u p ","na","na",50,44,560384,"u",1101,0,NA
"ANUHEGFSFGLX","test",11,0,"RWA","na","na","There are many radical immoral people trying to ruin things the society ought to stop them.<br><br>Very negative 1 - 2 - 3 - 4 - 5 - 6 - 7 Very positive","na","word","na","na","na","na","500","na","na","14",0,"na","na","na","na","1 2 3 4 5 6 7 8 9","na","na",51,157,587290,"6",13828,0,NA
"ANUHEGFSFGLX","test",3,0,"RWA","na","na","The old-fashioned ways and old-fashioned values still show the best way to live.<br><br>Very negative 1 - 2 - 3 - 4 - 5 - 6 - 7 Very positive","na","word","na","na","na","na","500","na","na","14",0,"na","na","na","na","1 2 3 4 5 6 7 8 9","na","na",52,149,593834,"4",6027,0,NA
"ANUHEGFSFGLX","test",6,0,"RWA","na","na","The society needs to show openness towards people thinking differently rather than a strong leader the world is not particularly evil or dangerous.<br><br>Very negative 1 - 2 - 3 - 4 - 5 - 6 - 7 Very positive","na","word","na","na","na","na","500","na","na","14",0,"na","na","na","na","1 2 3 4 5 6 7 8 9","na","na",53,152,607320,"7",12969,0,NA
"ANUHEGFSFGLX","test",10,0,"RWA","na","na","People ought to put less attention to the Bible and religion instead they ought to develop their own moral standards.<br><br>Very negative 1 - 2 - 3 - 4 - 5 - 6 - 7 Very positive","na","word","na","na","na","na","500","na","na","14",0,"na","na","na","na","1 2 3 4 5 6 7 8 9","na","na",54,156,617849,"4",10026,0,NA
"ANUHEGFSFGLX","test",15,0,"RWA","na","na","If the society so wants it is the duty of every true citizen to help eliminate the evil that poisons our country from within.<br><br>Very negative 1 - 2 - 3 - 4 - 5 - 6 - 7 Very positive","na","word","na","na","na","na","500","na","na","14",0,"na","na","na","na","1 2 3 4 5 6 7 8 9","na","na",55,161,630272,"3",11921,0,NA
"ANUHEGFSFGLX","test",13,0,"RWA","na","na","Facts show that we have to be harder against crime and sexual immorality in order to uphold law and order.<br><br>Very negative 1 - 2 - 3 - 4 - 5 - 6 - 7 Very positive","na","word","na","na","na","na","500","na","na","14",0,"na","na","na","na","1 2 3 4 5 6 7 8 9","na","na",56,159,636834,"2",6061,0,NA
"ANUHEGFSFGLX","test",4,0,"RWA","na","na","Our society would be better off if we showed tolerance and understanding for untraditional values and opinions.<br><br>Very negative 1 - 2 - 3 - 4 - 5 - 6 - 7 Very positive","na","word","na","na","na","na","500","na","na","14",0,"na","na","na","na","1 2 3 4 5 6 7 8 9","na","na",57,150,642833,"6",5482,0,NA
"ANUHEGFSFGLX","test",5,0,"RWA","na","na","Gods laws about abortion pornography and marriage must be strictly followed before it is too late violations must be punished.<br><br>Very negative 1 - 2 - 3 - 4 - 5 - 6 - 7 Very positive","na","word","na","na","na","na","500","na","na","14",0,"na","na","na","na","1 2 3 4 5 6 7 8 9","na","na",58,151,649505,"1",6170,0,NA
"ANUHEGFSFGLX","test",2,0,"RWA","na","na","Our country needs free thinkers who will have the courage to stand up against traditional ways even if this upsets many people.<br><br>Very negative 1 - 2 - 3 - 4 - 5 - 6 - 7 Very positive","na","word","na","na","na","na","500","na","na","14",0,"na","na","na","na","1 2 3 4 5 6 7 8 9","na","na",59,148,656084,"6",6061,0,NA
"ANUHEGFSFGLX","test",12,0,"RWA","na","na","It is better to accept bad literature than to censor it.<br><br>Very negative 1 - 2 - 3 - 4 - 5 - 6 - 7 Very positive","na","word","na","na","na","na","500","na","na","14",0,"na","na","na","na","1 2 3 4 5 6 7 8 9","na","na",60,158,660599,"6",4011,0,NA
"ANUHEGFSFGLX","test",14,0,"RWA","na","na","The situation in the society of today would be improved if troublemakers were treated with reason and humanity.<br><br>Very negative 1 - 2 - 3 - 4 - 5 - 6 - 7 Very positive","na","word","na","na","na","na","500","na","na","14",0,"na","na","na","na","1 2 3 4 5 6 7 8 9","na","na",61,160,667160,"5",6058,0,NA
"ANUHEGFSFGLX","test",9,0,"RWA","na","na","Our forefathers ought to be honored more for the way they have built our society at the same time we ought to put an end to those forces destroying it.<br><br>Very negative 1 - 2 - 3 - 4 - 5 - 6 - 7 Very positive","na","word","na","na","na","na","500","na","na","14",0,"na","na","na","na","1 2 3 4 5 6 7 8 9","na","na",62,155,679069,"2",11383,0,NA
"ANUHEGFSFGLX","test",7,0,"RWA","na","na","It would be best if newspapers were censored so that people would not be able to get hold of destructive and disgusting material.<br><br>Very negative 1 - 2 - 3 - 4 - 5 - 6 - 7 Very positive","na","word","na","na","na","na","500","na","na","14",0,"na","na","na","na","1 2 3 4 5 6 7 8 9","na","na",63,153,685254,"1",5669,0,NA
"ANUHEGFSFGLX","test",8,0,"RWA","na","na","Many good people challenge the state criticize the church and ignore the normal way of living.<br><br>Very negative 1 - 2 - 3 - 4 - 5 - 6 - 7 Very positive","na","word","na","na","na","na","500","na","na","14",0,"na","na","na","na","1 2 3 4 5 6 7 8 9","na","na",64,154,693596,"7",7826,0,NA
"ANUHEGFSFGLX","test",1,0,"RWA","na","na","Our country needs a powerful leader in order to destroy the radical and immoral currents prevailing in society today.<br><br>Very negative 1 - 2 - 3 - 4 - 5 - 6 - 7 Very positive","na","word","na","na","na","na","500","na","na","14",0,"na","na","na","na","1 2 3 4 5 6 7 8 9","na","na",65,147,699160,"1",5062,0,NA
"ANUHEGFSFGLX","form",1,0,"SECS","na","na","na","Abortion","word","1","na","na","na","500","na","na","15",0,"na","na","na","na","na","slider","0_100_5",NA,NA,727196,"75",15481,0,NA
"ANUHEGFSFGLX","form",12,0,"SECS","na","na","na","Patriotism","word","1","na","na","na","500","na","na","15",0,"na","na","na","na","na","slider","0_100_5",NA,NA,734829,"10",7049,0,NA
"ANUHEGFSFGLX","form",10,0,"SECS","na","na","na","Business","word","1","na","na","na","500","na","na","15",0,"na","na","na","na","na","slider","0_100_5",NA,NA,742697,"50",7334,0,NA
"ANUHEGFSFGLX","form",7,0,"SECS","na","na","na","Traditional marriage","word","1","na","na","na","500","na","na","15",0,"na","na","na","na","na","slider","0_100_5",NA,NA,748759,"75",5490,0,NA
"ANUHEGFSFGLX","form",2,0,"SECS","na","na","na","Limited government","word","1","na","na","na","500","na","na","15",0,"na","na","na","na","na","slider","0_100_5",NA,NA,755778,"75",6476,0,NA
"ANUHEGFSFGLX","form",8,0,"SECS","na","na","na","Traditional values","word","1","na","na","na","500","na","na","15",0,"na","na","na","na","na","slider","0_100_5",NA,NA,762777,"80",6448,0,NA
"ANUHEGFSFGLX","form",5,0,"SECS","na","na","na","Welfare benefits","word","1","na","na","na","500","na","na","15",0,"na","na","na","na","na","slider","0_100_5",NA,NA,767932,"25",4610,0,NA
"ANUHEGFSFGLX","form",6,0,"SECS","na","na","na","Gun ownership","word","1","na","na","na","500","na","na","15",0,"na","na","na","na","na","slider","0_100_5",NA,NA,772446,"50",3948,0,NA
"ANUHEGFSFGLX","form",9,0,"SECS","na","na","na","Fiscal responsibility","word","1","na","na","na","500","na","na","15",0,"na","na","na","na","na","slider","0_100_5",NA,NA,777796,"60",4795,0,NA
"ANUHEGFSFGLX","form",3,0,"SECS","na","na","na","Military and national security","word","1","na","na","na","500","na","na","15",0,"na","na","na","na","na","slider","0_100_5",NA,NA,783111,"0",4764,0,NA
"ANUHEGFSFGLX","form",4,0,"SECS","na","na","na","Religion","word","1","na","na","na","500","na","na","15",0,"na","na","na","na","na","slider","0_100_5",NA,NA,788912,"50",5234,0,NA
"ANUHEGFSFGLX","form",11,0,"SECS","na","na","na","The family unit","word","1","na","na","na","500","na","na","15",0,"na","na","na","na","na","slider","0_100_5",NA,NA,793194,"100",3718,0,NA
"BDEARMUDGXWY","test",1,0,"apprentissage","na","na","Watch carefully these two families","na",".jpg","na","learn02","na","na","500","na","na","na",0,"na","na","NEXT","na","na","na","na",1,1,95440,"1",12047,0,NA
"BDEARMUDGXWY","test",14,0,"apprentissage","na","na","To which family does this character belong?","na",".jpg","na","M5","na","2","500","na","na","1",0,"Your answer is wrong","Your answer is correct","FAMILY A"," FAMILY B","na","na","na",2,14,98955,"2",3003,1,NA
"BDEARMUDGXWY","test",2,0,"apprentissage","na","na","To which family does this character belong?","na",".jpg","na","B1","na","1","500","na","na","1",0,"Your answer is wrong","Your answer is correct","FAMILY A"," FAMILY B","na","na","na",3,2,102638,"1",1965,1,NA
"BDEARMUDGXWY","test",4,0,"apprentissage","na","na","To which family does this character belong?","na",".jpg","na","B3","na","1","500","na","na","1",0,"Your answer is wrong","Your answer is correct","FAMILY A"," FAMILY B","na","na","na",4,4,106100,"1",1885,1,NA
"BDEARMUDGXWY","test",11,0,"apprentissage","na","na","To which family does this character belong?","na",".jpg","na","M2","na","2","500","na","na","1",0,"Your answer is wrong","Your answer is correct","FAMILY A"," FAMILY B","na","na","na",5,11,109060,"2",1476,1,NA
"BDEARMUDGXWY","test",17,0,"apprentissage","na","na","To which family does this character belong?","na",".jpg","na","M7","na","2","500","na","na","1",0,"Your answer is wrong","Your answer is correct","FAMILY A"," FAMILY B","na","na","na",6,17,111738,"2",1209,1,NA
"BDEARMUDGXWY","test",3,0,"apprentissage","na","na","To which family does this character belong?","na",".jpg","na","B2","na","1","500","na","na","1",0,"Your answer is wrong","Your answer is correct","FAMILY A"," FAMILY B","na","na","na",7,3,115522,"1",2525,1,NA
"BDEARMUDGXWY","test",15,0,"apprentissage","na","na","To which family does this character belong?","na",".jpg","na","M5","na","2","500","na","na","1",0,"Your answer is wrong","Your answer is correct","FAMILY A"," FAMILY B","na","na","na",8,15,118764,"2",1593,1,NA
"BDEARMUDGXWY","test",6,0,"apprentissage","na","na","To which family does this character belong?","na",".jpg","na","B5","na","1","500","na","na","1",0,"Your answer is wrong","Your answer is correct","FAMILY A"," FAMILY B","na","na","na",9,6,121681,"2",1668,0,NA
"BDEARMUDGXWY","test",8,0,"apprentissage","na","na","To which family does this character belong?","na",".jpg","na","B7","na","1","500","na","na","1",0,"Your answer is wrong","Your answer is correct","FAMILY A"," FAMILY B","na","na","na",10,8,124402,"1",1501,1,NA
"BDEARMUDGXWY","test",10,0,"apprentissage","na","na","To which family does this character belong?","na",".jpg","na","M1","na","2","500","na","na","1",0,"Your answer is wrong","Your answer is correct","FAMILY A"," FAMILY B","na","na","na",11,10,127137,"2",1332,1,NA
"BDEARMUDGXWY","test",5,0,"apprentissage","na","na","To which family does this character belong?","na",".jpg","na","B4","na","1","500","na","na","1",0,"Your answer is wrong","Your answer is correct","FAMILY A"," FAMILY B","na","na","na",12,5,129712,"1",1382,1,NA
"BDEARMUDGXWY","test",16,0,"apprentissage","na","na","To which family does this character belong?","na",".jpg","na","M6","na","2","500","na","na","1",0,"Your answer is wrong","Your answer is correct","FAMILY A"," FAMILY B","na","na","na",13,16,132864,"2",1808,1,NA
"BDEARMUDGXWY","test",18,0,"apprentissage","na","na","To which family does this character belong?","na",".jpg","na","M8","na","2","500","na","na","1",0,"Your answer is wrong","Your answer is correct","FAMILY A"," FAMILY B","na","na","na",14,18,135573,"2",1189,1,NA
"BDEARMUDGXWY","test",7,0,"apprentissage","na","na","To which family does this character belong?","na",".jpg","na","B6","na","1","500","na","na","1",0,"Your answer is wrong","Your answer is correct","FAMILY A"," FAMILY B","na","na","na",15,7,138104,"2",1317,0,NA
"BDEARMUDGXWY","test",9,0,"apprentissage","na","na","To which family does this character belong?","na",".jpg","na","B8","na","1","500","na","na","1",0,"Your answer is wrong","Your answer is correct","FAMILY A"," FAMILY B","na","na","na",16,9,140517,"2",1136,0,NA
"BDEARMUDGXWY","test",13,0,"apprentissage","na","na","To which family does this character belong?","na",".jpg","na","M4","na","2","500","na","na","1",0,"Your answer is wrong","Your answer is correct","FAMILY A"," FAMILY B","na","na","na",17,13,143111,"2",1145,1,NA
"BDEARMUDGXWY","test",12,0,"apprentissage","na","na","To which family does this character belong?","na",".jpg","na","M3","na","2","500","na","na","1",0,"Your answer is wrong","Your answer is correct","FAMILY A"," FAMILY B","na","na","na",18,12,145508,"2",1048,1,NA
"BDEARMUDGXWY","test",14,1,"ratings1","na","na","Your general feelings about this member are:<br><br>Very negatives 1 - 2 - 3 - 4 - 5 - 6 - 7 - 8 - 9 Very positives","na",".jpg","na","M6","na","na","500","na","na","10",0,"na","na","na","na","1 2 3 4 5 6 7 8 9","na","na",19,32,426037,"5",6342,0,NA
"BDEARMUDGXWY","test",10,1,"ratings1","na","na","Your general feelings about this member are:<br><br>Very negatives 1 - 2 - 3 - 4 - 5 - 6 - 7 - 8 - 9 Very positives","na",".jpg","na","M2","na","na","500","na","na","10",0,"na","na","na","na","1 2 3 4 5 6 7 8 9","na","na",20,28,431068,"6",4521,0,NA
"BDEARMUDGXWY","test",11,1,"ratings1","na","na","Your general feelings about this member are:<br><br>Very negatives 1 - 2 - 3 - 4 - 5 - 6 - 7 - 8 - 9 Very positives","na",".jpg","na","M3","na","na","500","na","na","10",0,"na","na","na","na","1 2 3 4 5 6 7 8 9","na","na",21,29,433836,"5",2254,0,NA
"BDEARMUDGXWY","test",12,1,"ratings1","na","na","Your general feelings about this member are:<br><br>Very negatives 1 - 2 - 3 - 4 - 5 - 6 - 7 - 8 - 9 Very positives","na",".jpg","na","M4","na","na","500","na","na","10",0,"na","na","na","na","1 2 3 4 5 6 7 8 9","na","na",22,30,436240,"6",1895,0,NA
"BDEARMUDGXWY","test",1,1,"ratings1","na","na","Your general feelings about this member are:<br><br>Very negatives 1 - 2 - 3 - 4 - 5 - 6 - 7 - 8 - 9 Very positives","na",".jpg","na","B1","na","na","500","na","na","10",0,"na","na","na","na","1 2 3 4 5 6 7 8 9","na","na",23,19,440004,"6",3254,0,NA
"BDEARMUDGXWY","test",16,1,"ratings1","na","na","Your general feelings about this member are:<br><br>Very negatives 1 - 2 - 3 - 4 - 5 - 6 - 7 - 8 - 9 Very positives","na",".jpg","na","M8","na","na","500","na","na","10",0,"na","na","na","na","1 2 3 4 5 6 7 8 9","na","na",24,34,442363,"5",1849,0,NA
"BDEARMUDGXWY","test",3,1,"ratings1","na","na","Your general feelings about this member are:<br><br>Very negatives 1 - 2 - 3 - 4 - 5 - 6 - 7 - 8 - 9 Very positives","na",".jpg","na","B3","na","na","500","na","na","10",0,"na","na","na","na","1 2 3 4 5 6 7 8 9","na","na",25,21,445116,"9",2245,0,NA
"BDEARMUDGXWY","test",13,1,"ratings1","na","na","Your general feelings about this member are:<br><br>Very negatives 1 - 2 - 3 - 4 - 5 - 6 - 7 - 8 - 9 Very positives","na",".jpg","na","M5","na","na","500","na","na","10",0,"na","na","na","na","1 2 3 4 5 6 7 8 9","na","na",26,31,447448,"1",1824,0,NA
"BDEARMUDGXWY","test",8,1,"ratings1","na","na","Your general feelings about this member are:<br><br>Very negatives 1 - 2 - 3 - 4 - 5 - 6 - 7 - 8 - 9 Very positives","na",".jpg","na","B8","na","na","500","na","na","10",0,"na","na","na","na","1 2 3 4 5 6 7 8 9","na","na",27,26,449659,"9",1701,0,NA
"BDEARMUDGXWY","test",9,1,"ratings1","na","na","Your general feelings about this member are:<br><br>Very negatives 1 - 2 - 3 - 4 - 5 - 6 - 7 - 8 - 9 Very positives","na",".jpg","na","M1","na","na","500","na","na","10",0,"na","na","na","na","1 2 3 4 5 6 7 8 9","na","na",28,27,451347,"1",1179,0,NA
"BDEARMUDGXWY","test",4,1,"ratings1","na","na","Your general feelings about this member are:<br><br>Very negatives 1 - 2 - 3 - 4 - 5 - 6 - 7 - 8 - 9 Very positives","na",".jpg","na","B4","na","na","500","na","na","10",0,"na","na","na","na","1 2 3 4 5 6 7 8 9","na","na",29,22,453043,"9",1189,0,NA
"BDEARMUDGXWY","test",7,1,"ratings1","na","na","Your general feelings about this member are:<br><br>Very negatives 1 - 2 - 3 - 4 - 5 - 6 - 7 - 8 - 9 Very positives","na",".jpg","na","B7","na","na","500","na","na","10",0,"na","na","na","na","1 2 3 4 5 6 7 8 9","na","na",30,25,454819,"5",1268,0,NA
"BDEARMUDGXWY","test",15,1,"ratings1","na","na","Your general feelings about this member are:<br><br>Very negatives 1 - 2 - 3 - 4 - 5 - 6 - 7 - 8 - 9 Very positives","na",".jpg","na","M7","na","na","500","na","na","10",0,"na","na","na","na","1 2 3 4 5 6 7 8 9","na","na",31,33,457941,"1",2612,0,NA
"BDEARMUDGXWY","test",6,1,"ratings1","na","na","Your general feelings about this member are:<br><br>Very negatives 1 - 2 - 3 - 4 - 5 - 6 - 7 - 8 - 9 Very positives","na",".jpg","na","B6","na","na","500","na","na","10",0,"na","na","na","na","1 2 3 4 5 6 7 8 9","na","na",32,24,459699,"1",1249,0,NA
"BDEARMUDGXWY","test",5,1,"ratings1","na","na","Your general feelings about this member are:<br><br>Very negatives 1 - 2 - 3 - 4 - 5 - 6 - 7 - 8 - 9 Very positives","na",".jpg","na","B5","na","na","500","na","na","10",0,"na","na","na","na","1 2 3 4 5 6 7 8 9","na","na",33,23,461563,"9",1354,0,NA
"BDEARMUDGXWY","test",2,1,"ratings1","na","na","Your general feelings about this member are:<br><br>Very negatives 1 - 2 - 3 - 4 - 5 - 6 - 7 - 8 - 9 Very positives","na",".jpg","na","B2","na","na","500","na","na","10",0,"na","na","na","na","1 2 3 4 5 6 7 8 9","na","na",34,20,462955,"9",882,0,NA
"BDEARMUDGXWY","test",5,1,"affectivemisattributionprocedure1","na","na","This word is:<br><br>negative press u ; positive press p","na",".bmp","na","Mask","na","na","na","na","na","na",1,"na","na","na","na","u p ","na","na",35,35,487646,"u",4324,0,NA
"BDEARMUDGXWY","test",5,1,"affectivemisattributionprocedure1","na","na","This word is:<br><br>negative press u ; positive press p","na",".bmp","na","Mask","na","na","na","na","na","na",6,"na","na","na","na","u p ","na","na",36,48,489826,"p",617,0,NA
"BDEARMUDGXWY","test",5,1,"affectivemisattributionprocedure1","na","na","This word is:<br><br>negative press u ; positive press p","na",".bmp","na","Mask","na","na","na","na","na","na",1,"na","na","na","na","u p ","na","na",37,43,492009,"u",628,0,NA
"BDEARMUDGXWY","test",5,1,"affectivemisattributionprocedure1","na","na","This word is:<br><br>negative press u ; positive press p","na",".bmp","na","Mask","na","na","na","na","na","na",4,"na","na","na","na","u p ","na","na",38,46,494561,"p",1004,0,NA
"BDEARMUDGXWY","test",5,1,"affectivemisattributionprocedure1","na","na","This word is:<br><br>negative press u ; positive press p","na",".bmp","na","Mask","na","na","na","na","na","na",2,"na","na","na","na","u p ","na","na",39,36,497241,"p",1142,0,NA
"BDEARMUDGXWY","test",5,1,"affectivemisattributionprocedure1","na","na","This word is:<br><br>negative press u ; positive press p","na",".bmp","na","Mask","na","na","na","na","na","na",7,"na","na","na","na","u p ","na","na",40,49,499299,"u",522,0,NA
"BDEARMUDGXWY","test",5,1,"affectivemisattributionprocedure1","na","na","This word is:<br><br>negative press u ; positive press p","na",".bmp","na","Mask","na","na","na","na","na","na",7,"na","na","na","na","u p ","na","na",41,41,501057,"p",202,0,NA
"BDEARMUDGXWY","test",5,1,"affectivemisattributionprocedure1","na","na","This word is:<br><br>negative press u ; positive press p","na",".bmp","na","Mask","na","na","na","na","na","na",8,"na","na","na","na","u p ","na","na",42,42,502825,"u",225,0,NA
"BDEARMUDGXWY","test",5,1,"affectivemisattributionprocedure1","na","na","This word is:<br><br>negative press u ; positive press p","na",".bmp","na","Mask","na","na","na","na","na","na",5,"na","na","na","na","u p ","na","na",43,39,504689,"p",316,0,NA
"BDEARMUDGXWY","test",5,1,"affectivemisattributionprocedure1","na","na","This word is:<br><br>negative press u ; positive press p","na",".bmp","na","Mask","na","na","na","na","na","na",3,"na","na","na","na","u p ","na","na",44,45,506601,"u",383,0,NA
"BDEARMUDGXWY","test",5,1,"affectivemisattributionprocedure1","na","na","This word is:<br><br>negative press u ; positive press p","na",".bmp","na","Mask","na","na","na","na","na","na",6,"na","na","na","na","u p ","na","na",45,40,508345,"u",192,0,NA
"BDEARMUDGXWY","test",5,1,"affectivemisattributionprocedure1","na","na","This word is:<br><br>negative press u ; positive press p","na",".bmp","na","Mask","na","na","na","na","na","na",4,"na","na","na","na","u p ","na","na",46,38,510068,"p",173,0,NA
"BDEARMUDGXWY","test",5,1,"affectivemisattributionprocedure1","na","na","This word is:<br><br>negative press u ; positive press p","na",".bmp","na","Mask","na","na","na","na","na","na",8,"na","na","na","na","u p ","na","na",47,50,511841,"u",228,0,NA
"BDEARMUDGXWY","test",5,1,"affectivemisattributionprocedure1","na","na","This word is:<br><br>negative press u ; positive press p","na",".bmp","na","Mask","na","na","na","na","na","na",3,"na","na","na","na","u p ","na","na",48,37,513523,"p",128,0,NA
"BDEARMUDGXWY","test",5,1,"affectivemisattributionprocedure1","na","na","This word is:<br><br>negative press u ; positive press p","na",".bmp","na","Mask","na","na","na","na","na","na",5,"na","na","na","na","u p ","na","na",49,47,515222,"u",151,0,NA
"BDEARMUDGXWY","test",5,1,"affectivemisattributionprocedure1","na","na","This word is:<br><br>negative press u ; positive press p","na",".bmp","na","Mask","na","na","na","na","na","na",2,"na","na","na","na","u p ","na","na",50,44,516912,"u",162,0,NA
"BDEARMUDGXWY","test",7,0,"RWA","na","na","It would be best if newspapers were censored so that people would not be able to get hold of destructive and disgusting material.<br><br>Very negative 1 - 2 - 3 - 4 - 5 - 6 - 7 Very positive","na","word","na","na","na","na","500","na","na","14",0,"na","na","na","na","1 2 3 4 5 6 7 8 9","na","na",51,153,529408,"5",8057,0,NA
"BDEARMUDGXWY","test",8,0,"RWA","na","na","Many good people challenge the state criticize the church and ignore the normal way of living.<br><br>Very negative 1 - 2 - 3 - 4 - 5 - 6 - 7 Very positive","na","word","na","na","na","na","500","na","na","14",0,"na","na","na","na","1 2 3 4 5 6 7 8 9","na","na",52,154,536828,"5",6911,0,NA
"BDEARMUDGXWY","test",2,0,"RWA","na","na","Our country needs free thinkers who will have the courage to stand up against traditional ways even if this upsets many people.<br><br>Very negative 1 - 2 - 3 - 4 - 5 - 6 - 7 Very positive","na","word","na","na","na","na","500","na","na","14",0,"na","na","na","na","1 2 3 4 5 6 7 8 9","na","na",53,148,542119,"4",4784,0,NA
"BDEARMUDGXWY","test",9,0,"RWA","na","na","Our forefathers ought to be honored more for the way they have built our society at the same time we ought to put an end to those forces destroying it.<br><br>Very negative 1 - 2 - 3 - 4 - 5 - 6 - 7 Very positive","na","word","na","na","na","na","500","na","na","14",0,"na","na","na","na","1 2 3 4 5 6 7 8 9","na","na",54,155,549241,"7",6614,0,NA
"BDEARMUDGXWY","test",15,0,"RWA","na","na","If the society so wants it is the duty of every true citizen to help eliminate the evil that poisons our country from within.<br><br>Very negative 1 - 2 - 3 - 4 - 5 - 6 - 7 Very positive","na","word","na","na","na","na","500","na","na","14",0,"na","na","na","na","1 2 3 4 5 6 7 8 9","na","na",55,161,554887,"7",5140,0,NA
"BDEARMUDGXWY","test",12,0,"RWA","na","na","It is better to accept bad literature than to censor it.<br><br>Very negative 1 - 2 - 3 - 4 - 5 - 6 - 7 Very positive","na","word","na","na","na","na","500","na","na","14",0,"na","na","na","na","1 2 3 4 5 6 7 8 9","na","na",56,158,559238,"4",3844,0,NA
"BDEARMUDGXWY","test",6,0,"RWA","na","na","The society needs to show openness towards people thinking differently rather than a strong leader the world is not particularly evil or dangerous.<br><br>Very negative 1 - 2 - 3 - 4 - 5 - 6 - 7 Very positive","na","word","na","na","na","na","500","na","na","14",0,"na","na","na","na","1 2 3 4 5 6 7 8 9","na","na",57,152,568944,"6",9197,0,NA
"BDEARMUDGXWY","test",1,0,"RWA","na","na","Our country needs a powerful leader in order to destroy the radical and immoral currents prevailing in society today.<br><br>Very negative 1 - 2 - 3 - 4 - 5 - 6 - 7 Very positive","na","word","na","na","na","na","500","na","na","14",0,"na","na","na","na","1 2 3 4 5 6 7 8 9","na","na",58,147,573710,"7",4259,0,NA
"BDEARMUDGXWY","test",14,0,"RWA","na","na","The situation in the society of today would be improved if troublemakers were treated with reason and humanity.<br><br>Very negative 1 - 2 - 3 - 4 - 5 - 6 - 7 Very positive","na","word","na","na","na","na","500","na","na","14",0,"na","na","na","na","1 2 3 4 5 6 7 8 9","na","na",59,160,578985,"1",4768,0,NA
"BDEARMUDGXWY","test",5,0,"RWA","na","na","Gods laws about abortion pornography and marriage must be strictly followed before it is too late violations must be punished.<br><br>Very negative 1 - 2 - 3 - 4 - 5 - 6 - 7 Very positive","na","word","na","na","na","na","500","na","na","14",0,"na","na","na","na","1 2 3 4 5 6 7 8 9","na","na",60,151,582933,"4",3438,0,NA
"BDEARMUDGXWY","test",10,0,"RWA","na","na","People ought to put less attention to the Bible and religion instead they ought to develop their own moral standards.<br><br>Very negative 1 - 2 - 3 - 4 - 5 - 6 - 7 Very positive","na","word","na","na","na","na","500","na","na","14",0,"na","na","na","na","1 2 3 4 5 6 7 8 9","na","na",61,156,586957,"7",3518,0,NA
"BDEARMUDGXWY","test",13,0,"RWA","na","na","Facts show that we have to be harder against crime and sexual immorality in order to uphold law and order.<br><br>Very negative 1 - 2 - 3 - 4 - 5 - 6 - 7 Very positive","na","word","na","na","na","na","500","na","na","14",0,"na","na","na","na","1 2 3 4 5 6 7 8 9","na","na",62,159,591511,"7",4048,0,NA
"BDEARMUDGXWY","test",11,0,"RWA","na","na","There are many radical immoral people trying to ruin things the society ought to stop them.<br><br>Very negative 1 - 2 - 3 - 4 - 5 - 6 - 7 Very positive","na","word","na","na","na","na","500","na","na","14",0,"na","na","na","na","1 2 3 4 5 6 7 8 9","na","na",63,157,594836,"7",2818,0,NA
"BDEARMUDGXWY","test",4,0,"RWA","na","na","Our society would be better off if we showed tolerance and understanding for untraditional values and opinions.<br><br>Very negative 1 - 2 - 3 - 4 - 5 - 6 - 7 Very positive","na","word","na","na","na","na","500","na","na","14",0,"na","na","na","na","1 2 3 4 5 6 7 8 9","na","na",64,150,599540,"4",4198,0,NA
"BDEARMUDGXWY","test",3,0,"RWA","na","na","The old-fashioned ways and old-fashioned values still show the best way to live.<br><br>Very negative 1 - 2 - 3 - 4 - 5 - 6 - 7 Very positive","na","word","na","na","na","na","500","na","na","14",0,"na","na","na","na","1 2 3 4 5 6 7 8 9","na","na",65,149,604472,"6",4426,0,NA
"BDEARMUDGXWY","form",12,0,"SECS","na","na","na","Patriotism","word","1","na","na","na","500","na","na","15",0,"na","na","na","na","na","slider","0_100_5",NA,NA,613105,"50",3942,0,NA
"BDEARMUDGXWY","form",10,0,"SECS","na","na","na","Business","word","1","na","na","na","500","na","na","15",0,"na","na","na","na","na","slider","0_100_5",NA,NA,617006,"30",3346,0,NA
"BDEARMUDGXWY","form",2,0,"SECS","na","na","na","Limited government","word","1","na","na","na","500","na","na","15",0,"na","na","na","na","na","slider","0_100_5",NA,NA,620509,"50",2953,0,NA
"BDEARMUDGXWY","form",4,0,"SECS","na","na","na","Religion","word","1","na","na","na","500","na","na","15",0,"na","na","na","na","na","slider","0_100_5",NA,NA,623245,"0",2186,0,NA
"BDEARMUDGXWY","form",5,0,"SECS","na","na","na","Welfare benefits","word","1","na","na","na","500","na","na","15",0,"na","na","na","na","na","slider","0_100_5",NA,NA,625765,"0",1982,0,NA
"BDEARMUDGXWY","form",7,0,"SECS","na","na","na","Traditional marriage","word","1","na","na","na","500","na","na","15",0,"na","na","na","na","na","slider","0_100_5",NA,NA,628564,"100",2241,0,NA
"BDEARMUDGXWY","form",3,0,"SECS","na","na","na","Military and national security","word","1","na","na","na","500","na","na","15",0,"na","na","na","na","na","slider","0_100_5",NA,NA,631700,"75",2592,0,NA
"BDEARMUDGXWY","form",6,0,"SECS","na","na","na","Gun ownership","word","1","na","na","na","500","na","na","15",0,"na","na","na","na","na","slider","0_100_5",NA,NA,634426,"0",2177,0,NA
"BDEARMUDGXWY","form",8,0,"SECS","na","na","na","Traditional values","word","1","na","na","na","500","na","na","15",0,"na","na","na","na","na","slider","0_100_5",NA,NA,638267,"90",3305,0,NA
"BDEARMUDGXWY","form",9,0,"SECS","na","na","na","Fiscal responsibility","word","1","na","na","na","500","na","na","15",0,"na","na","na","na","na","slider","0_100_5",NA,NA,642139,"50",3335,0,NA
"BDEARMUDGXWY","form",1,0,"SECS","na","na","na","Abortion","word","1","na","na","na","500","na","na","15",0,"na","na","na","na","na","slider","0_100_5",NA,NA,645156,"15",2476,0,NA
"BDEARMUDGXWY","form",11,0,"SECS","na","na","na","The family unit","word","1","na","na","na","500","na","na","15",0,"na","na","na","na","na","slider","0_100_5",NA,NA,647964,"100",2254,0,NA
"BFKJXAGREYNI","test",1,0,"apprentissage","na","na","Watch carefully these two families","na",".jpg","na","learn02","na","na","500","na","na","na",0,"na","na","NEXT","na","na","na","na",1,1,140942,"1",10235,0,NA
"BFKJXAGREYNI","test",16,0,"apprentissage","na","na","To which family does this character belong?","na",".jpg","na","M6","na","2","500","na","na","1",0,"Your answer is wrong","Your answer is correct","FAMILY A"," FAMILY B","na","na","na",2,16,145304,"2",3836,1,NA
"BFKJXAGREYNI","test",4,0,"apprentissage","na","na","To which family does this character belong?","na",".jpg","na","B3","na","1","500","na","na","1",0,"Your answer is wrong","Your answer is correct","FAMILY A"," FAMILY B","na","na","na",3,4,150943,"1",2556,1,NA
"BFKJXAGREYNI","test",8,0,"apprentissage","na","na","To which family does this character belong?","na",".jpg","na","B7","na","1","500","na","na","1",0,"Your answer is wrong","Your answer is correct","FAMILY A"," FAMILY B","na","na","na",4,8,156482,"1",2997,1,NA
"BFKJXAGREYNI","test",12,0,"apprentissage","na","na","To which family does this character belong?","na",".jpg","na","M3","na","2","500","na","na","1",0,"Your answer is wrong","Your answer is correct","FAMILY A"," FAMILY B","na","na","na",5,12,161524,"2",2624,1,NA
"BFKJXAGREYNI","test",3,0,"apprentissage","na","na","To which family does this character belong?","na",".jpg","na","B2","na","1","500","na","na","1",0,"Your answer is wrong","Your answer is correct","FAMILY A"," FAMILY B","na","na","na",6,3,166833,"1",2733,1,NA
"BFKJXAGREYNI","test",13,0,"apprentissage","na","na","To which family does this character belong?","na",".jpg","na","M4","na","2","500","na","na","1",0,"Your answer is wrong","Your answer is correct","FAMILY A"," FAMILY B","na","na","na",7,13,172040,"2",2775,1,NA
"BFKJXAGREYNI","test",14,0,"apprentissage","na","na","To which family does this character belong?","na",".jpg","na","M5","na","2","500","na","na","1",0,"Your answer is wrong","Your answer is correct","FAMILY A"," FAMILY B","na","na","na",8,14,177344,"2",2705,1,NA
"BFKJXAGREYNI","test",11,0,"apprentissage","na","na","To which family does this character belong?","na",".jpg","na","M2","na","2","500","na","na","1",0,"Your answer is wrong","Your answer is correct","FAMILY A"," FAMILY B","na","na","na",9,11,182652,"2",2530,1,NA
"BFKJXAGREYNI","test",10,0,"apprentissage","na","na","To which family does this character belong?","na",".jpg","na","M1","na","2","500","na","na","1",0,"Your answer is wrong","Your answer is correct","FAMILY A"," FAMILY B","na","na","na",10,10,187697,"2",2853,1,NA
"BFKJXAGREYNI","test",17,0,"apprentissage","na","na","To which family does this character belong?","na",".jpg","na","M7","na","2","500","na","na","1",0,"Your answer is wrong","Your answer is correct","FAMILY A"," FAMILY B","na","na","na",11,17,193244,"2",2400,1,NA
"BFKJXAGREYNI","test",15,0,"apprentissage","na","na","To which family does this character belong?","na",".jpg","na","M5","na","2","500","na","na","1",0,"Your answer is wrong","Your answer is correct","FAMILY A"," FAMILY B","na","na","na",12,15,197987,"2",2488,1,NA
"BFKJXAGREYNI","test",18,0,"apprentissage","na","na","To which family does this character belong?","na",".jpg","na","M8","na","2","500","na","na","1",0,"Your answer is wrong","Your answer is correct","FAMILY A"," FAMILY B","na","na","na",13,18,202939,"2",2473,1,NA
"BFKJXAGREYNI","test",2,0,"apprentissage","na","na","To which family does this character belong?","na",".jpg","na","B1","na","1","500","na","na","1",0,"Your answer is wrong","Your answer is correct","FAMILY A"," FAMILY B","na","na","na",14,2,207726,"1",2442,1,NA
"BFKJXAGREYNI","test",6,0,"apprentissage","na","na","To which family does this character belong?","na",".jpg","na","B5","na","1","500","na","na","1",0,"Your answer is wrong","Your answer is correct","FAMILY A"," FAMILY B","na","na","na",15,6,212533,"1",2495,1,NA
"BFKJXAGREYNI","test",9,0,"apprentissage","na","na","To which family does this character belong?","na",".jpg","na","B8","na","1","500","na","na","1",0,"Your answer is wrong","Your answer is correct","FAMILY A"," FAMILY B","na","na","na",16,9,217151,"1",2650,1,NA
"BFKJXAGREYNI","test",5,0,"apprentissage","na","na","To which family does this character belong?","na",".jpg","na","B4","na","1","500","na","na","1",0,"Your answer is wrong","Your answer is correct","FAMILY A"," FAMILY B","na","na","na",17,5,221387,"1",2222,1,NA
"BFKJXAGREYNI","test",7,0,"apprentissage","na","na","To which family does this character belong?","na",".jpg","na","B6","na","1","500","na","na","1",0,"Your answer is wrong","Your answer is correct","FAMILY A"," FAMILY B","na","na","na",18,7,230403,"1",4615,1,NA
"BFKJXAGREYNI","test",2,1,"ratings1","na","na","Your general feelings about this member are:<br><br>Very negatives 1 - 2 - 3 - 4 - 5 - 6 - 7 - 8 - 9 Very positives","na",".jpg","na","B2","na","na","500","na","na","10",0,"na","na","na","na","1 2 3 4 5 6 7 8 9","na","na",19,20,456629,"5",6857,0,NA
"BFKJXAGREYNI","test",9,1,"ratings1","na","na","Your general feelings about this member are:<br><br>Very negatives 1 - 2 - 3 - 4 - 5 - 6 - 7 - 8 - 9 Very positives","na",".jpg","na","M1","na","na","500","na","na","10",0,"na","na","na","na","1 2 3 4 5 6 7 8 9","na","na",20,27,458421,"5",1266,0,NA
"BFKJXAGREYNI","test",10,1,"ratings1","na","na","Your general feelings about this member are:<br><br>Very negatives 1 - 2 - 3 - 4 - 5 - 6 - 7 - 8 - 9 Very positives","na",".jpg","na","M2","na","na","500","na","na","10",0,"na","na","na","na","1 2 3 4 5 6 7 8 9","na","na",21,28,459589,"5",638,0,NA
"BFKJXAGREYNI","test",6,1,"ratings1","na","na","Your general feelings about this member are:<br><br>Very negatives 1 - 2 - 3 - 4 - 5 - 6 - 7 - 8 - 9 Very positives","na",".jpg","na","B6","na","na","500","na","na","10",0,"na","na","na","na","1 2 3 4 5 6 7 8 9","na","na",22,24,460548,"5",426,0,NA
"BFKJXAGREYNI","test",3,1,"ratings1","na","na","Your general feelings about this member are:<br><br>Very negatives 1 - 2 - 3 - 4 - 5 - 6 - 7 - 8 - 9 Very positives","na",".jpg","na","B3","na","na","500","na","na","10",0,"na","na","na","na","1 2 3 4 5 6 7 8 9","na","na",23,21,461429,"5",361,0,NA
"BFKJXAGREYNI","test",7,1,"ratings1","na","na","Your general feelings about this member are:<br><br>Very negatives 1 - 2 - 3 - 4 - 5 - 6 - 7 - 8 - 9 Very positives","na",".jpg","na","B7","na","na","500","na","na","10",0,"na","na","na","na","1 2 3 4 5 6 7 8 9","na","na",24,25,462245,"5",293,0,NA
"BFKJXAGREYNI","test",16,1,"ratings1","na","na","Your general feelings about this member are:<br><br>Very negatives 1 - 2 - 3 - 4 - 5 - 6 - 7 - 8 - 9 Very positives","na",".jpg","na","M8","na","na","500","na","na","10",0,"na","na","na","na","1 2 3 4 5 6 7 8 9","na","na",25,34,463013,"5",245,0,NA
"BFKJXAGREYNI","test",15,1,"ratings1","na","na","Your general feelings about this member are:<br><br>Very negatives 1 - 2 - 3 - 4 - 5 - 6 - 7 - 8 - 9 Very positives","na",".jpg","na","M7","na","na","500","na","na","10",0,"na","na","na","na","1 2 3 4 5 6 7 8 9","na","na",26,33,463637,"5",96,0,NA
"BFKJXAGREYNI","test",5,1,"ratings1","na","na","Your general feelings about this member are:<br><br>Very negatives 1 - 2 - 3 - 4 - 5 - 6 - 7 - 8 - 9 Very positives","na",".jpg","na","B5","na","na","500","na","na","10",0,"na","na","na","na","1 2 3 4 5 6 7 8 9","na","na",27,23,464517,"5",340,0,NA
"BFKJXAGREYNI","test",13,1,"ratings1","na","na","Your general feelings about this member are:<br><br>Very negatives 1 - 2 - 3 - 4 - 5 - 6 - 7 - 8 - 9 Very positives","na",".jpg","na","M5","na","na","500","na","na","10",0,"na","na","na","na","1 2 3 4 5 6 7 8 9","na","na",28,31,465365,"5",323,0,NA
"BFKJXAGREYNI","test",1,1,"ratings1","na","na","Your general feelings about this member are:<br><br>Very negatives 1 - 2 - 3 - 4 - 5 - 6 - 7 - 8 - 9 Very positives","na",".jpg","na","B1","na","na","500","na","na","10",0,"na","na","na","na","1 2 3 4 5 6 7 8 9","na","na",29,19,466245,"5",357,0,NA
"BFKJXAGREYNI","test",8,1,"ratings1","na","na","Your general feelings about this member are:<br><br>Very negatives 1 - 2 - 3 - 4 - 5 - 6 - 7 - 8 - 9 Very positives","na",".jpg","na","B8","na","na","500","na","na","10",0,"na","na","na","na","1 2 3 4 5 6 7 8 9","na","na",30,26,467189,"5",419,0,NA
"BFKJXAGREYNI","test",11,1,"ratings1","na","na","Your general feelings about this member are:<br><br>Very negatives 1 - 2 - 3 - 4 - 5 - 6 - 7 - 8 - 9 Very positives","na",".jpg","na","M3","na","na","500","na","na","10",0,"na","na","na","na","1 2 3 4 5 6 7 8 9","na","na",31,29,468085,"5",360,0,NA
"BFKJXAGREYNI","test",12,1,"ratings1","na","na","Your general feelings about this member are:<br><br>Very negatives 1 - 2 - 3 - 4 - 5 - 6 - 7 - 8 - 9 Very positives","na",".jpg","na","M4","na","na","500","na","na","10",0,"na","na","na","na","1 2 3 4 5 6 7 8 9","na","na",32,30,468965,"5",355,0,NA
"BFKJXAGREYNI","test",4,1,"ratings1","na","na","Your general feelings about this member are:<br><br>Very negatives 1 - 2 - 3 - 4 - 5 - 6 - 7 - 8 - 9 Very positives","na",".jpg","na","B4","na","na","500","na","na","10",0,"na","na","na","na","1 2 3 4 5 6 7 8 9","na","na",33,22,469844,"5",348,0,NA
"BFKJXAGREYNI","test",14,1,"ratings1","na","na","Your general feelings about this member are:<br><br>Very negatives 1 - 2 - 3 - 4 - 5 - 6 - 7 - 8 - 9 Very positives","na",".jpg","na","M6","na","na","500","na","na","10",0,"na","na","na","na","1 2 3 4 5 6 7 8 9","na","na",34,32,470709,"5",331,0,NA
"BFKJXAGREYNI","test",5,1,"affectivemisattributionprocedure1","na","na","This word is:<br><br>negative press u ; positive press p","na",".bmp","na","Mask","na","na","na","na","na","na",6,"na","na","na","na","u p ","na","na",35,48,500612,"u",805,0,NA
"BFKJXAGREYNI","test",5,1,"affectivemisattributionprocedure1","na","na","This word is:<br><br>negative press u ; positive press p","na",".bmp","na","Mask","na","na","na","na","na","na",2,"na","na","na","na","u p ","na","na",36,44,502676,"u",612,0,NA
"BFKJXAGREYNI","test",5,1,"affectivemisattributionprocedure1","na","na","This word is:<br><br>negative press u ; positive press p","na",".bmp","na","Mask","na","na","na","na","na","na",2,"na","na","na","na","u p ","na","na",37,36,505018,"u",887,0,NA
"BFKJXAGREYNI","test",5,1,"affectivemisattributionprocedure1","na","na","This word is:<br><br>negative press u ; positive press p","na",".bmp","na","Mask","na","na","na","na","na","na",5,"na","na","na","na","u p ","na","na",38,39,507028,"p",547,0,NA
"BFKJXAGREYNI","test",5,1,"affectivemisattributionprocedure1","na","na","This word is:<br><br>negative press u ; positive press p","na",".bmp","na","Mask","na","na","na","na","na","na",4,"na","na","na","na","u p ","na","na",39,46,509220,"u",757,0,NA
"BFKJXAGREYNI","test",5,1,"affectivemisattributionprocedure1","na","na","This word is:<br><br>negative press u ; positive press p","na",".bmp","na","Mask","na","na","na","na","na","na",4,"na","na","na","na","u p ","na","na",40,38,511236,"p",559,0,NA
"BFKJXAGREYNI","test",5,1,"affectivemisattributionprocedure1","na","na","This word is:<br><br>negative press u ; positive press p","na",".bmp","na","Mask","na","na","na","na","na","na",3,"na","na","na","na","u p ","na","na",41,37,513012,"p",335,0,NA
"BFKJXAGREYNI","test",5,1,"affectivemisattributionprocedure1","na","na","This word is:<br><br>negative press u ; positive press p","na",".bmp","na","Mask","na","na","na","na","na","na",3,"na","na","na","na","u p ","na","na",42,45,515109,"p",633,0,NA
"BFKJXAGREYNI","test",5,1,"affectivemisattributionprocedure1","na","na","This word is:<br><br>negative press u ; positive press p","na",".bmp","na","Mask","na","na","na","na","na","na",1,"na","na","na","na","u p ","na","na",43,43,517652,"u",1069,0,NA
"BFKJXAGREYNI","test",5,1,"affectivemisattributionprocedure1","na","na","This word is:<br><br>negative press u ; positive press p","na",".bmp","na","Mask","na","na","na","na","na","na",5,"na","na","na","na","u p ","na","na",44,47,519635,"p",535,0,NA
"BFKJXAGREYNI","test",5,1,"affectivemisattributionprocedure1","na","na","This word is:<br><br>negative press u ; positive press p","na",".bmp","na","Mask","na","na","na","na","na","na",7,"na","na","na","na","u p ","na","na",45,49,521588,"p",500,0,NA
"BFKJXAGREYNI","test",5,1,"affectivemisattributionprocedure1","na","na","This word is:<br><br>negative press u ; positive press p","na",".bmp","na","Mask","na","na","na","na","na","na",6,"na","na","na","na","u p ","na","na",46,40,523283,"u",263,0,NA
"BFKJXAGREYNI","test",5,1,"affectivemisattributionprocedure1","na","na","This word is:<br><br>negative press u ; positive press p","na",".bmp","na","Mask","na","na","na","na","na","na",8,"na","na","na","na","u p ","na","na",47,42,525108,"u",391,0,NA
"BFKJXAGREYNI","test",5,1,"affectivemisattributionprocedure1","na","na","This word is:<br><br>negative press u ; positive press p","na",".bmp","na","Mask","na","na","na","na","na","na",8,"na","na","na","na","u p ","na","na",48,50,526660,"p",90,0,NA
"BFKJXAGREYNI","test",5,1,"affectivemisattributionprocedure1","na","na","This word is:<br><br>negative press u ; positive press p","na",".bmp","na","Mask","na","na","na","na","na","na",7,"na","na","na","na","u p ","na","na",49,41,528340,"p",235,0,NA
"BFKJXAGREYNI","test",5,1,"affectivemisattributionprocedure1","na","na","This word is:<br><br>negative press u ; positive press p","na",".bmp","na","Mask","na","na","na","na","na","na",1,"na","na","na","na","u p ","na","na",50,35,530099,"p",313,0,NA
"BFKJXAGREYNI","test",3,0,"RWA","na","na","The old-fashioned ways and old-fashioned values still show the best way to live.<br><br>Very negative 1 - 2 - 3 - 4 - 5 - 6 - 7 Very positive","na","word","na","na","na","na","500","na","na","14",0,"na","na","na","na","1 2 3 4 5 6 7 8 9","na","na",51,149,541604,"5",6783,0,NA
"BFKJXAGREYNI","test",5,0,"RWA","na","na","Gods laws about abortion pornography and marriage must be strictly followed before it is too late violations must be punished.<br><br>Very negative 1 - 2 - 3 - 4 - 5 - 6 - 7 Very positive","na","word","na","na","na","na","500","na","na","14",0,"na","na","na","na","1 2 3 4 5 6 7 8 9","na","na",52,151,552403,"1",10268,0,NA
"BFKJXAGREYNI","test",9,0,"RWA","na","na","Our forefathers ought to be honored more for the way they have built our society at the same time we ought to put an end to those forces destroying it.<br><br>Very negative 1 - 2 - 3 - 4 - 5 - 6 - 7 Very positive","na","word","na","na","na","na","500","na","na","14",0,"na","na","na","na","1 2 3 4 5 6 7 8 9","na","na",53,155,557747,"5",4812,0,NA
"BFKJXAGREYNI","test",14,0,"RWA","na","na","The situation in the society of today would be improved if troublemakers were treated with reason and humanity.<br><br>Very negative 1 - 2 - 3 - 4 - 5 - 6 - 7 Very positive","na","word","na","na","na","na","500","na","na","14",0,"na","na","na","na","1 2 3 4 5 6 7 8 9","na","na",54,160,564803,"5",6538,0,NA
"BFKJXAGREYNI","test",4,0,"RWA","na","na","Our society would be better off if we showed tolerance and understanding for untraditional values and opinions.<br><br>Very negative 1 - 2 - 3 - 4 - 5 - 6 - 7 Very positive","na","word","na","na","na","na","500","na","na","14",0,"na","na","na","na","1 2 3 4 5 6 7 8 9","na","na",55,150,572275,"6",6939,0,NA
"BFKJXAGREYNI","test",8,0,"RWA","na","na","Many good people challenge the state criticize the church and ignore the normal way of living.<br><br>Very negative 1 - 2 - 3 - 4 - 5 - 6 - 7 Very positive","na","word","na","na","na","na","500","na","na","14",0,"na","na","na","na","1 2 3 4 5 6 7 8 9","na","na",56,154,575619,"6",2814,0,NA
